Ah_balance (normalized)	Ah_balance (mAh)	Voltage - fit (V)	Voltage -  interpolate (V)	dQ/dV (1/V)	Temperature (°C)	Temperature - diff (°C)	Current (C)	R_DC 0ms (mOhm)	R_DC 50ms (mOhm)	R_DC 50 ms PEC (mOhm)
0.1761	11273.07	4.0830	4.0830	0.7545	7.25	1.26	0.750			
0.1785	11421.39	4.0800	4.0800	0.7819	7.25	1.26	0.750			
0.1808	11572.68	4.0770	4.0769	0.7785	7.25	1.26	0.750			
0.1831	11718.68	4.0740	4.0741	0.7775	7.24	1.25	0.750			
0.1854	11867.64	4.0710	4.0711	0.7818	7.24	1.25	0.750			
0.1878	12017.72	4.0680	4.0678	0.7854	7.24	1.25	0.750			
0.1901	12168.72	4.0650	4.0651	0.7893	7.24	1.25	0.750			
0.1925	12320.76	4.0620	4.0621	0.7907	7.24	1.25	0.750			
0.1949	12474.29	4.0590	4.0590	0.7950	7.23	1.24	0.750			
0.1973	12628.43	4.0560	4.0559	0.7984	7.23	1.24	0.750			
0.1997	12779.21	4.0530	4.0531	0.7988	7.23	1.24	0.750			
0.2021	12932.94	4.0500	4.0500	0.8046	7.23	1.24	0.750			
0.2046	13091.76	4.0470	4.0469	0.7988	7.22	1.23	0.750			
0.2069	13243.40	4.0440	4.0440	0.8015	7.22	1.23	0.750			
0.2093	13396.87	4.0410	4.0411	0.8044	7.22	1.23	0.750			
0.2117	13549.68	4.0380	4.0381	0.8092	7.21	1.22	0.750			
0.2141	13704.09	4.0350	4.0349	0.8114	7.21	1.22	0.750			
0.2166	13861.19	4.0320	4.0321	0.8136	7.21	1.22	0.750			
0.2191	14019.23	4.0290	4.0291	0.8201	7.21	1.22	0.750			
0.2216	14179.21	4.0260	4.0260	0.8241	7.21	1.22	0.750			
0.2240	14335.78	4.0230	4.0230	0.8227	7.21	1.22	0.750			
0.2265	14492.87	4.0200	4.0200	0.8266	7.21	1.22	0.750			
0.2289	14652.28	4.0170	4.0170	0.8300	7.20	1.21	0.750			
0.2315	14812.87	4.0140	4.0140	0.8360	7.19	1.20	0.750			
0.2340	14973.98	4.0110	4.0110	0.8413	7.18	1.19	0.750			
0.2365	15136.51	4.0080	4.0081	0.8419	7.18	1.19	0.750			
0.2390	15298.76	4.0050	4.0049	0.8430	7.17	1.18	0.750			
0.2416	15460.40	4.0020	4.0020	0.8429	7.17	1.18	0.750			
0.2441	15621.02	3.9990	3.9990	0.8473	7.17	1.18	0.750			
0.2466	15782.87	3.9960	3.9960	0.8595	7.17	1.18	0.750			
0.2492	15949.34	3.9930	3.9930	0.8645	7.17	1.18	0.750			
0.2518	16116.04	3.9900	3.9901	0.8686	7.17	1.18	0.750			
0.2545	16285.15	3.9870	3.9871	0.8729	7.16	1.17	0.750			
0.2571	16453.79	3.9840	3.9841	0.8770	7.16	1.17	0.750			
0.2597	16622.19	3.9810	3.9809	0.8775	7.15	1.16	0.750			
0.2623	16788.14	3.9780	3.9780	0.8783	7.14	1.15	0.750			
0.2650	16956.80	3.9750	3.9750	0.8834	7.14	1.15	0.750			
0.2677	17129.82	3.9720	3.9720	0.8845	7.13	1.14	0.750			
0.2703	17298.93	3.9690	3.9690	0.8851	7.12	1.13	0.750			
0.2729	17468.77	3.9660	3.9661	0.8875	7.12	1.13	0.750			
0.2756	17638.28	3.9630	3.9628	0.8880	7.11	1.12	0.750			
0.2783	17810.10	3.9600	3.9599	0.8830	7.11	1.12	0.750			
0.2809	17976.59	3.9570	3.9570	0.8892	7.10	1.11	0.750			
0.2835	18145.31	3.9540	3.9541	0.9043	7.10	1.11	0.750			
0.2863	18322.79	3.9510	3.9510	0.9142	7.09	1.10	0.750			
0.2890	18497.57	3.9480	3.9477	0.9186	7.09	1.10	0.750			
0.2918	18677.17	3.9450	3.9451	0.9220	7.08	1.09	0.750			
0.2946	18855.75	3.9420	3.9422	0.9313	7.08	1.09	0.750			
0.2974	19035.40	3.9390	3.9389	0.9402	7.08	1.09	0.750			
0.3002	19214.33	3.9360	3.9359	0.9386	7.07	1.08	0.750			
0.3031	19395.58	3.9330	3.9330	0.9342	7.06	1.07	0.750			
0.3059	19577.71	3.9300	3.9301	0.9449	7.06	1.07	0.750			
0.3088	19761.04	3.9270	3.9270	0.9463	7.05	1.06	0.750			
0.3116	19941.59	3.9240	3.9242	0.9524	7.04	1.05	0.750			
0.3144	20120.86	3.9210	3.9210	0.9538	7.04	1.05	0.750			
0.3172	20303.35	3.9180	3.9180	0.9605	7.03	1.04	0.750			
0.3201	20488.39	3.9150	3.9151	0.9741	7.02	1.03	0.750			
0.3231	20677.17	3.9120	3.9121	0.9906	7.02	1.03	0.750			
0.3261	20869.83	3.9090	3.9090	1.0011	7.01	1.02	0.750			
0.3291	21064.93	3.9060	3.9061	1.0128	7.00	1.01	0.750			
0.3322	21260.15	3.9030	3.9030	1.0195	6.99	1.00	0.750			
0.3353	21456.87	3.9000	3.9000	1.0317	6.99	1.00	0.750			
0.3384	21654.53	3.8970	3.8970	1.0371	6.98	0.99	0.750			
0.3415	21855.40	3.8940	3.8940	1.0421	6.97	0.98	0.750			
0.3446	22054.95	3.8910	3.8910	1.0610	6.97	0.98	0.750			
0.3478	22259.36	3.8880	3.8881	1.0753	6.96	0.97	0.750			
0.3511	22468.87	3.8850	3.8847	1.0823	6.95	0.96	0.750			
0.3543	22677.70	3.8820	3.8821	1.0996	6.94	0.95	0.750			
0.3577	22889.70	3.8790	3.8791	1.1129	6.93	0.94	0.750			
0.3610	23105.03	3.8760	3.8760	1.1306	6.92	0.93	0.750			
0.3644	23324.11	3.8730	3.8730	1.1306	6.91	0.92	0.750			
0.3678	23540.63	3.8700	3.8701	1.1484	6.90	0.91	0.750			
0.3713	23762.33	3.8670	3.8670	1.1713	6.90	0.91	0.750			
0.3749	23991.51	3.8640	3.8639	1.1833	6.89	0.90	0.750			
0.3784	24219.06	3.8610	3.8610	1.1995	6.88	0.89	0.750			
0.3821	24452.15	3.8580	3.8581	1.2178	6.87	0.88	0.750			
0.3857	24687.74	3.8550	3.8551	1.2350	6.86	0.87	0.750			
0.3895	24929.87	3.8520	3.8520	1.2317	6.85	0.86	0.750			
0.3932	25163.07	3.8490	3.8491	1.2553	6.83	0.84	0.750			
0.3969	25399.95	3.8460	3.8461	1.2834	6.82	0.83	0.750			
0.4008	25648.99	3.8430	3.8426	1.3224	6.81	0.82	0.750			
0.4047	25903.85	3.8400	3.8399	1.3612	6.80	0.81	0.750			
0.4089	26171.29	3.8370	3.8372	1.4027	6.80	0.81	0.750			
0.4133	26449.57	3.8340	3.8320	1.4332	6.79	0.80	0.749	0.382	0.903	
0.4176	26729.56	3.8310	3.8311	1.4469	6.78	0.79	0.750			
0.4221	27012.33	3.8280	3.8280	1.4615	6.76	0.77	0.750			
0.4264	27290.99	3.8250	3.8249	1.4682	6.75	0.76	0.750			
0.4308	27571.11	3.8220	3.8222	1.4666	6.73	0.74	0.750			
0.4352	27853.42	3.8190	3.8192	1.5067	6.72	0.73	0.750			
0.4398	28144.94	3.8160	3.8157	1.5359	6.71	0.72	0.750			
0.4442	28431.75	3.8130	3.8131	1.5966	6.70	0.71	0.750			
0.4491	28744.82	3.8100	3.8102	1.6962	6.68	0.69	0.750			
0.4545	29088.02	3.8070	3.8070	1.7409	6.67	0.68	0.750			
0.4599	29432.87	3.8040	3.8044	1.7981	6.65	0.66	0.750			
0.4653	29779.66	3.8010	3.8011	1.8372	6.63	0.64	0.750			
0.4709	30138.65	3.7980	3.7977	1.8407	6.61	0.62	0.750			
0.4763	30480.89	3.7950	3.7949	1.8135	6.59	0.60	0.750			
0.4818	30834.40	3.7920	3.7920	1.8557	6.57	0.58	0.750			
0.4875	31199.23	3.7890	3.7889	1.8502	6.55	0.56	0.750			
0.4931	31558.41	3.7860	3.7861	1.8983	6.53	0.54	0.750			
0.4988	31926.15	3.7830	3.7832	1.9116	6.52	0.53	0.750			
0.5047	32299.43	3.7800	3.7798	1.9532	6.49	0.50	0.750			
0.5105	32673.66	3.7770	3.7769	1.9928	6.46	0.47	0.750			
0.5167	33066.17	3.7740	3.7743	2.0451	6.44	0.45	0.750			
0.5228	33460.25	3.7710	3.7709	2.0814	6.42	0.43	0.750			
0.5292	33867.97	3.7680	3.7683	2.0877	6.40	0.41	0.750			
0.5355	34272.71	3.7650	3.7651	2.1291	6.38	0.39	0.750			
0.5417	34669.24	3.7620	3.7617	2.1678	6.35	0.36	0.750			
0.5484	35097.52	3.7590	3.7590	2.1904	6.32	0.33	0.750			
0.5551	35523.28	3.7560	3.7561	2.2021	6.30	0.31	0.750			
0.5617	35947.06	3.7530	3.7528	2.2212	6.28	0.29	0.750			
0.5684	36378.17	3.7500	3.7499	2.2460	6.25	0.26	0.750			
0.5752	36813.81	3.7470	3.7470	2.3264	6.23	0.24	0.750			
0.5822	37260.01	3.7440	3.7440	2.3464	6.20	0.21	0.750			
0.5893	37715.75	3.7410	3.7410	2.4191	6.18	0.19	0.750			
0.5968	38192.09	3.7380	3.7379	2.5416	6.15	0.16	0.750			
0.6045	38688.69	3.7350	3.7349	2.5972	6.13	0.14	0.750			
0.6125	39198.94	3.7320	3.7321	2.6916	6.11	0.12	0.750			
0.6206	39720.45	3.7290	3.7291	2.7583	6.09	0.10	0.750			
0.6291	40261.41	3.7260	3.7260	2.7473	6.06	0.07	0.750			
0.6374	40792.61	3.7230	3.7231	2.7375	6.03	0.04	0.750			
0.6455	41309.28	3.7200	3.7199	2.7339	6.02	0.03	0.750			
0.6539	41847.91	3.7170	3.7168	2.6780	6.00	0.01	0.750			
0.6619	42364.53	3.7140	3.7140	2.4867	5.98	-0.01	0.750			
0.6690	42816.88	3.7110	3.7109	2.2542	5.98	-0.01	0.750			
0.6753	43216.79	3.7080	3.7080	1.9587	5.97	-0.02	0.750			
0.6807	43567.35	3.7050	3.7050	1.7408	5.96	-0.03	0.750			
0.6856	43879.84	3.7020	3.7022	1.5507	5.95	-0.04	0.750			
0.6901	44164.38	3.6990	3.6989	1.3696	5.95	-0.04	0.750			
0.6937	44398.11	3.6960	3.6961	1.2256	5.95	-0.04	0.750			
0.6970	44607.72	3.6930	3.6931	1.0908	5.95	-0.04	0.750			
0.7001	44803.59	3.6900	3.6898	1.0122	5.95	-0.04	0.750			
0.7029	44982.98	3.6870	3.6870	0.9337	5.95	-0.04	0.750			
0.7055	45152.43	3.6840	3.6841	0.8814	5.95	-0.04	0.750			
0.7081	45316.85	3.6810	3.6810	0.8394	5.96	-0.03	0.750			
0.7106	45475.47	3.6780	3.6780	0.7952	5.96	-0.03	0.750			
0.7129	45625.52	3.6750	3.6749	0.7514	5.96	-0.03	0.750			
0.7151	45768.67	3.6720	3.6721	0.7064	5.96	-0.03	0.750			
0.7172	45899.61	3.6690	3.6691	0.6548	5.97	-0.02	0.750			
0.7190	46018.48	3.6660	3.6660	0.6078	5.97	-0.02	0.750			
0.7208	46130.46	3.6630	3.6629	0.5594	5.98	-0.01	0.750			
0.7224	46230.91	3.6600	3.6599	0.5128	5.98	-0.01	0.750			
0.7238	46324.54	3.6570	3.6570	0.4732	5.99	-0.00	0.750			
0.7252	46413.53	3.6540	3.6542	0.4376	5.99	-0.00	0.750			
0.7265	46493.73	3.6510	3.6509	0.3979	5.99	0.00	0.750			
0.7276	46565.63	3.6480	3.6481	0.3586	5.99	0.00	0.750			
0.7286	46630.19	3.6450	3.6450	0.3198	6.00	0.01	0.750			
0.7295	46688.20	3.6420	3.6420	0.2833	6.00	0.01	0.750			
0.7303	46739.66	3.6390	3.6389	0.2447	6.00	0.01	0.750			
0.7310	46782.87	3.6360	3.6360	0.2064	6.00	0.01	0.750			
0.7316	46820.06	3.6330	3.6330	0.1703	6.00	0.01	0.750			
0.7320	46849.09	3.6300	3.6300	0.1305	6.00	0.01	0.750			
0.7323	46869.79	3.6270	3.6275	0.0906	6.01	0.02	0.750			
0.7326	46884.29	3.6240	3.6247	0.0487	6.01	0.02	0.750			
0.7326	46889.60	3.6210	3.6229	0.0066	6.01	0.02	0.750			
