Ah_balance (normalized)	Ah_balance (mAh)	Voltage - fit (V)	Voltage -  interpolate (V)	dQ/dV (1/V)	Temperature (°C)	Temperature - diff (°C)	Current (C)	R_DC 0ms (mOhm)	R_DC 50ms (mOhm)	R_DC 50 ms PEC (mOhm)
0.1868	11954.04	4.0820	4.0820	0.7617	7.44	1.45	0.750			
0.1891	12105.31	4.0790	4.0791	0.8005	7.43	1.44	0.750			
0.1916	12259.69	4.0760	4.0761	0.8076	7.43	1.44	0.750			
0.1941	12420.34	4.0730	4.0730	0.8057	7.42	1.43	0.750			
0.1965	12572.88	4.0700	4.0701	0.8097	7.42	1.43	0.750			
0.1989	12727.39	4.0670	4.0670	0.8123	7.42	1.43	0.750			
0.2013	12881.96	4.0640	4.0642	0.8147	7.41	1.42	0.750			
0.2037	13037.70	4.0610	4.0607	0.8178	7.41	1.42	0.750			
0.2062	13197.55	4.0580	4.0581	0.8207	7.41	1.42	0.750			
0.2087	13356.65	4.0550	4.0551	0.8266	7.40	1.41	0.750			
0.2112	13516.97	4.0520	4.0520	0.8306	7.40	1.41	0.750			
0.2137	13675.06	4.0490	4.0491	0.8263	7.39	1.40	0.750			
0.2161	13833.53	4.0460	4.0460	0.8301	7.39	1.40	0.750			
0.2187	13994.30	4.0430	4.0430	0.8310	7.39	1.40	0.750			
0.2212	14154.47	4.0400	4.0400	0.8365	7.38	1.39	0.750			
0.2237	14315.25	4.0370	4.0370	0.8409	7.38	1.39	0.750			
0.2262	14477.24	4.0340	4.0340	0.8387	7.37	1.38	0.750			
0.2287	14638.96	4.0310	4.0310	0.8398	7.37	1.38	0.750			
0.2313	14800.63	4.0280	4.0280	0.8429	7.37	1.38	0.750			
0.2338	14961.42	4.0250	4.0250	0.8504	7.37	1.38	0.750			
0.2363	15126.07	4.0220	4.0219	0.8550	7.36	1.37	0.750			
0.2389	15290.56	4.0190	4.0191	0.8557	7.36	1.37	0.750			
0.2415	15455.32	4.0160	4.0161	0.8634	7.36	1.37	0.750			
0.2441	15623.49	4.0130	4.0131	0.8659	7.35	1.36	0.750			
0.2467	15790.00	4.0100	4.0099	0.8668	7.35	1.36	0.750			
0.2493	15955.38	4.0070	4.0070	0.8671	7.34	1.35	0.750			
0.2519	16120.17	4.0040	4.0041	0.8712	7.33	1.34	0.750			
0.2545	16290.42	4.0010	4.0010	0.8754	7.33	1.34	0.750			
0.2572	16460.08	3.9980	3.9979	0.8739	7.32	1.33	0.750			
0.2598	16626.32	3.9950	3.9951	0.8777	7.32	1.33	0.750			
0.2624	16796.70	3.9920	3.9921	0.8849	7.32	1.33	0.750			
0.2651	16965.65	3.9890	3.9887	0.8926	7.31	1.32	0.750			
0.2678	17138.24	3.9860	3.9861	0.8939	7.31	1.32	0.750			
0.2705	17309.62	3.9830	3.9830	0.8870	7.30	1.31	0.750			
0.2731	17480.24	3.9800	3.9803	0.8939	7.30	1.31	0.750			
0.2758	17652.64	3.9770	3.9770	0.8958	7.29	1.30	0.750			
0.2785	17822.44	3.9740	3.9736	0.8999	7.29	1.30	0.750			
0.2812	17995.52	3.9710	3.9710	0.8988	7.29	1.30	0.750			
0.2839	18167.09	3.9680	3.9681	0.9091	7.28	1.29	0.750			
0.2867	18347.11	3.9650	3.9651	0.9249	7.28	1.29	0.750			
0.2894	18523.44	3.9620	3.9619	0.9237	7.27	1.28	0.750			
0.2923	18704.21	3.9590	3.9590	0.9259	7.27	1.28	0.750			
0.2950	18882.02	3.9560	3.9561	0.9323	7.26	1.27	0.750			
0.2978	19060.17	3.9530	3.9530	0.9370	7.26	1.27	0.750			
0.3007	19241.94	3.9500	3.9500	0.9484	7.25	1.26	0.750			
0.3035	19422.49	3.9470	3.9468	0.9485	7.25	1.26	0.750			
0.3064	19607.13	3.9440	3.9440	0.9459	7.24	1.25	0.750			
0.3092	19788.80	3.9410	3.9411	0.9625	7.23	1.24	0.750			
0.3121	19975.18	3.9380	3.9381	0.9718	7.22	1.23	0.750			
0.3150	20161.63	3.9350	3.9347	0.9736	7.21	1.22	0.750			
0.3180	20350.24	3.9320	3.9321	0.9794	7.21	1.22	0.750			
0.3209	20537.58	3.9290	3.9291	0.9889	7.21	1.22	0.750			
0.3239	20729.92	3.9260	3.9260	0.9991	7.21	1.22	0.750			
0.3269	20921.51	3.9230	3.9229	1.0021	7.21	1.22	0.750			
0.3299	21115.24	3.9200	3.9201	1.0107	7.20	1.21	0.750			
0.3330	21311.16	3.9170	3.9170	1.0227	7.19	1.20	0.750			
0.3361	21508.64	3.9140	3.9139	1.0327	7.18	1.19	0.750			
0.3392	21707.54	3.9110	3.9111	1.0456	7.17	1.18	0.750			
0.3423	21909.83	3.9080	3.9080	1.0443	7.17	1.18	0.750			
0.3455	22111.19	3.9050	3.9050	1.0626	7.16	1.17	0.750			
0.3487	22315.32	3.9020	3.9021	1.0766	7.16	1.17	0.750			
0.3519	22523.29	3.8990	3.8990	1.0901	7.15	1.16	0.750			
0.3552	22733.75	3.8960	3.8961	1.0969	7.14	1.15	0.750			
0.3585	22945.38	3.8930	3.8931	1.1107	7.13	1.14	0.750			
0.3619	23159.99	3.8900	3.8901	1.1226	7.12	1.13	0.750			
0.3653	23379.07	3.8870	3.8869	1.1377	7.11	1.12	0.750			
0.3687	23594.67	3.8840	3.8841	1.1486	7.11	1.12	0.750			
0.3721	23815.98	3.8810	3.8810	1.1693	7.10	1.11	0.750			
0.3757	24043.13	3.8780	3.8781	1.1895	7.09	1.10	0.750			
0.3793	24274.49	3.8750	3.8751	1.1962	7.09	1.10	0.750			
0.3829	24503.31	3.8720	3.8720	1.2186	7.07	1.08	0.750			
0.3866	24739.86	3.8690	3.8692	1.2369	7.06	1.07	0.750			
0.3903	24978.47	3.8660	3.8656	1.2559	7.05	1.06	0.750			
0.3941	25220.23	3.8630	3.8632	1.2760	7.04	1.05	0.750			
0.3980	25468.85	3.8600	3.8600	1.2925	7.03	1.04	0.750			
0.4019	25721.90	3.8570	3.8570	1.3141	7.01	1.02	0.750			
0.4058	25969.36	3.8540	3.8541	1.3364	7.00	1.01	0.750			
0.4098	26228.93	3.8510	3.8510	1.3728	6.99	1.00	0.750			
0.4141	26499.72	3.8480	3.8478	1.4029	6.98	0.99	0.750			
0.4183	26774.17	3.8450	3.8449	1.4151	6.96	0.97	0.750	0.424	1.074	
0.4226	27047.58	3.8420	3.8422	1.4587	6.95	0.96	0.750			
0.4271	27334.07	3.8390	3.8389	1.4834	6.93	0.94	0.750			
0.4315	27614.64	3.8360	3.8357	1.5037	6.91	0.92	0.750			
0.4360	27907.11	3.8330	3.8332	1.5389	6.89	0.90	0.750			
0.4408	28211.09	3.8300	3.8299	1.5762	6.87	0.88	0.750			
0.4456	28516.58	3.8270	3.8269	1.6142	6.85	0.86	0.750			
0.4504	28827.87	3.8240	3.8239	1.6280	6.84	0.85	0.750			
0.4554	29143.34	3.8210	3.8210	1.6814	6.82	0.83	0.750			
0.4606	29476.02	3.8180	3.8180	1.7068	6.81	0.82	0.750			
0.4656	29798.73	3.8150	3.8151	1.7680	6.79	0.80	0.750			
0.4711	30148.87	3.8120	3.8121	1.8083	6.76	0.77	0.750			
0.4765	30495.04	3.8090	3.8089	1.8198	6.74	0.75	0.750			
0.4821	30854.47	3.8060	3.8062	1.8585	6.71	0.72	0.750			
0.4876	31207.85	3.8030	3.8030	1.9194	6.68	0.69	0.750			
0.4934	31578.86	3.8000	3.7999	1.9116	6.66	0.67	0.750			
0.4993	31952.56	3.7970	3.7972	1.9578	6.64	0.65	0.750			
0.5051	32327.92	3.7940	3.7940	1.9530	6.61	0.62	0.750			
0.5110	32703.07	3.7910	3.7910	2.0357	6.59	0.60	0.750			
0.5173	33104.37	3.7880	3.7880	2.0902	6.56	0.57	0.750			
0.5238	33524.72	3.7850	3.7853	2.1273	6.54	0.55	0.750			
0.5302	33935.23	3.7820	3.7819	2.1883	6.52	0.53	0.750			
0.5369	34360.21	3.7790	3.7792	2.1748	6.49	0.50	0.750			
0.5436	34790.11	3.7760	3.7763	2.2284	6.46	0.47	0.750			
0.5503	35216.90	3.7730	3.7728	2.2589	6.42	0.43	0.750			
0.5571	35653.31	3.7700	3.7699	2.3052	6.39	0.40	0.750			
0.5641	36101.51	3.7670	3.7671	2.4024	6.37	0.38	0.750			
0.5714	36568.77	3.7640	3.7640	2.4252	6.34	0.35	0.750			
0.5786	37032.22	3.7610	3.7610	2.4531	6.31	0.32	0.750			
0.5861	37510.06	3.7580	3.7580	2.4844	6.27	0.28	0.750			
0.5936	37992.40	3.7550	3.7550	2.5393	6.24	0.25	0.750			
0.6013	38486.40	3.7520	3.7520	2.5850	6.22	0.23	0.750			
0.6092	38989.97	3.7490	3.7491	2.7169	6.18	0.19	0.750			
0.6176	39527.72	3.7460	3.7460	2.8449	6.14	0.15	0.750			
0.6265	40095.85	3.7430	3.7430	3.0304	6.12	0.13	0.750			
0.6358	40688.61	3.7400	3.7400	3.0943	6.09	0.10	0.750			
0.6451	41286.61	3.7370	3.7370	3.2907	6.06	0.07	0.750			
0.6553	41940.92	3.7340	3.7339	3.3433	6.03	0.04	0.750			
0.6654	42585.41	3.7310	3.7310	3.2466	6.01	0.02	0.750			
0.6746	43173.62	3.7280	3.7280	2.9481	6.00	0.01	0.750			
0.6833	43731.16	3.7250	3.7249	2.6768	5.98	-0.01	0.750			
0.6908	44210.83	3.7220	3.7219	2.3086	5.97	-0.02	0.750			
0.6970	44610.54	3.7190	3.7189	1.9573	5.97	-0.02	0.750			
0.7021	44936.36	3.7160	3.7160	1.6395	5.97	-0.02	0.750			
0.7067	45229.59	3.7130	3.7130	1.4150	5.96	-0.03	0.750			
0.7104	45462.56	3.7100	3.7100	1.2186	5.96	-0.03	0.750			
0.7136	45670.09	3.7070	3.7070	1.0661	5.95	-0.04	0.750			
0.7165	45857.04	3.7040	3.7040	0.9586	5.95	-0.04	0.750			
0.7192	46029.53	3.7010	3.7010	0.8769	5.96	-0.03	0.750			
0.7217	46186.45	3.6980	3.6980	0.8043	5.96	-0.03	0.750			
0.7240	46333.67	3.6950	3.6950	0.7430	5.96	-0.03	0.750			
0.7261	46470.32	3.6920	3.6920	0.6848	5.97	-0.02	0.750			
0.7281	46595.31	3.6890	3.6886	0.6300	5.97	-0.02	0.750			
0.7299	46711.28	3.6860	3.6861	0.5755	5.97	-0.02	0.750			
0.7315	46817.01	3.6830	3.6829	0.5217	5.98	-0.01	0.750			
0.7330	46911.41	3.6800	3.6800	0.4707	5.98	-0.01	0.750			
0.7343	46997.00	3.6770	3.6770	0.4211	5.98	-0.01	0.750			
0.7355	47071.35	3.6740	3.6739	0.3728	5.98	-0.01	0.750			
0.7365	47137.78	3.6710	3.6709	0.3305	5.98	-0.01	0.750			
0.7374	47195.33	3.6680	3.6681	0.2883	5.98	-0.01	0.750			
0.7382	47247.46	3.6650	3.6649	0.2506	5.99	-0.00	0.750			
0.7389	47292.20	3.6620	3.6619	0.2133	5.99	-0.00	0.750			
0.7395	47329.19	3.6590	3.6591	0.1747	5.99	-0.00	0.750			
0.7400	47359.63	3.6560	3.6560	0.1376	5.99	-0.00	0.750			
0.7404	47382.92	3.6530	3.6533	0.0985	5.99	-0.00	0.750			
0.7406	47397.96	3.6500	3.6509	0.0581	5.99	-0.00	0.750			
0.7407	47405.26	3.6470	3.6485	0.0155	5.99	0.00	0.750			
