Ah_balance (normalized)	Ah_balance (mAh)	Voltage - fit (V)	Voltage -  interpolate (V)	dQ/dV (1/V)	Temperature (°C)	Temperature - diff (°C)	Current (C)	R_DC 0ms (mOhm)	R_DC 50ms (mOhm)	R_DC 50 ms PEC (mOhm)
0.0980	6274.29	4.0060	4.0055	-0.0716	6.00	0.01	-0.750			
0.0983	6291.26	4.0030	4.0028	-0.1025	6.00	0.01	-0.750			
0.0987	6313.99	4.0000	3.9999	-0.1310	6.00	0.01	-0.750			
0.0991	6342.45	3.9970	3.9969	-0.1573	6.00	0.01	-0.750			
0.0996	6375.27	3.9940	3.9940	-0.1823	6.00	0.01	-0.750			
0.1002	6412.69	3.9910	3.9910	-0.2075	6.00	0.01	-0.750			
0.1009	6455.79	3.9880	3.9881	-0.2315	5.99	0.00	-0.750			
0.1016	6502.93	3.9850	3.9849	-0.2533	5.99	0.00	-0.750			
0.1024	6553.42	3.9820	3.9821	-0.2754	5.99	-0.00	-0.750			
0.1032	6607.92	3.9790	3.9791	-0.2999	5.99	-0.00	-0.750			
0.1042	6667.31	3.9760	3.9761	-0.3239	5.98	-0.01	-0.750			
0.1052	6732.16	3.9730	3.9729	-0.3474	5.98	-0.01	-0.750			
0.1063	6800.77	3.9700	3.9700	-0.3718	5.98	-0.01	-0.750			
0.1074	6874.99	3.9670	3.9671	-0.3960	5.97	-0.02	-0.750			
0.1087	6953.75	3.9640	3.9640	-0.4216	5.97	-0.02	-0.750			
0.1099	7036.51	3.9610	3.9610	-0.4454	5.97	-0.02	-0.750			
0.1113	7123.81	3.9580	3.9579	-0.4662	5.96	-0.03	-0.750			
0.1128	7216.39	3.9550	3.9550	-0.4894	5.96	-0.03	-0.750			
0.1143	7313.04	3.9520	3.9520	-0.5117	5.95	-0.04	-0.750			
0.1158	7412.98	3.9490	3.9489	-0.5310	5.95	-0.04	-0.750			
0.1175	7517.47	3.9460	3.9460	-0.5478	5.95	-0.04	-0.750			
0.1191	7624.20	3.9430	3.9429	-0.5640	5.94	-0.05	-0.750			
0.1208	7733.54	3.9400	3.9401	-0.5834	5.94	-0.05	-0.750			
0.1226	7848.84	3.9370	3.9369	-0.5974	5.94	-0.05	-0.750			
0.1245	7965.40	3.9340	3.9339	-0.6111	5.93	-0.06	-0.750			
0.1263	8084.48	3.9310	3.9310	-0.6215	5.93	-0.06	-0.750			
0.1282	8204.95	3.9280	3.9280	-0.6334	5.93	-0.06	-0.750			
0.1301	8327.72	3.9250	3.9250	-0.6451	5.93	-0.06	-0.750			
0.1320	8451.19	3.9220	3.9221	-0.6563	5.94	-0.05	-0.750			
0.1340	8577.52	3.9190	3.9189	-0.6714	5.94	-0.05	-0.750			
0.1361	8711.06	3.9160	3.9159	-0.6800	5.94	-0.05	-0.750			
0.1382	8843.03	3.9130	3.9129	-0.6889	5.95	-0.04	-0.750			
0.1403	8976.88	3.9100	3.9102	-0.6916	5.95	-0.04	-0.750			
0.1423	9110.32	3.9070	3.9069	-0.6955	5.95	-0.04	-0.750			
0.1444	9242.34	3.9040	3.9040	-0.7057	5.95	-0.04	-0.750			
0.1465	9378.99	3.9010	3.9009	-0.7011	5.95	-0.04	-0.750			
0.1487	9515.89	3.8980	3.8979	-0.7073	5.95	-0.04	-0.750			
0.1508	9652.11	3.8950	3.8951	-0.7102	5.95	-0.04	-0.750			
0.1529	9787.65	3.8920	3.8922	-0.7161	5.95	-0.04	-0.750			
0.1551	9925.48	3.8890	3.8888	-0.7245	5.95	-0.04	-0.750			
0.1572	10062.93	3.8860	3.8860	-0.7279	5.95	-0.04	-0.750			
0.1594	10203.80	3.8830	3.8831	-0.7326	5.95	-0.04	-0.750			
0.1617	10348.62	3.8800	3.8800	-0.7420	5.95	-0.04	-0.750			
0.1639	10491.78	3.8770	3.8770	-0.7423	5.95	-0.04	-0.750			
0.1661	10632.50	3.8740	3.8739	-0.7412	5.95	-0.04	-0.750			
0.1683	10774.24	3.8710	3.8710	-0.7435	5.96	-0.03	-0.750			
0.1706	10917.34	3.8680	3.8679	-0.7457	5.96	-0.03	-0.750			
0.1728	11062.12	3.8650	3.8650	-0.7473	5.96	-0.03	-0.750			
0.1751	11207.09	3.8620	3.8620	-0.7468	5.97	-0.02	-0.750			
0.1773	11350.35	3.8590	3.8591	-0.7497	5.97	-0.02	-0.750			
0.1796	11493.94	3.8560	3.8560	-0.7491	5.98	-0.01	-0.750			
0.1818	11635.15	3.8530	3.8530	-0.7500	5.98	-0.01	-0.750			
0.1841	11779.57	3.8500	3.8500	-0.7517	5.99	0.00	-0.750			
0.1863	11924.83	3.8470	3.8470	-0.7572	6.00	0.01	-0.750			
0.1886	12070.74	3.8440	3.8439	-0.7582	6.01	0.02	-0.750			
0.1909	12217.30	3.8410	3.8408	-0.7610	6.01	0.02	-0.750			
0.1932	12362.49	3.8380	3.8381	-0.7601	6.02	0.03	-0.750			
0.1955	12509.73	3.8350	3.8350	-0.7593	6.02	0.03	-0.750			
0.1977	12654.91	3.8320	3.8320	-0.7558	6.02	0.03	-0.750			
0.2000	12801.24	3.8290	3.8290	-0.7590	6.03	0.04	-0.750			
0.2023	12944.56	3.8260	3.8261	-0.7589	6.03	0.04	-0.750			
0.2045	13090.04	3.8230	3.8230	-0.7621	6.03	0.04	-0.750			
0.2068	13235.46	3.8200	3.8199	-0.7674	6.04	0.05	-0.750			
0.2091	13384.44	3.8170	3.8171	-0.7667	6.04	0.05	-0.750			
0.2115	13533.00	3.8140	3.8140	-0.7695	6.04	0.05	-0.750			
0.2138	13682.15	3.8110	3.8110	-0.7700	6.05	0.06	-0.750			
0.2161	13829.74	3.8080	3.8079	-0.7687	6.05	0.06	-0.750			
0.2184	13974.98	3.8050	3.8050	-0.7692	6.06	0.07	-0.750			
0.2207	14122.81	3.8020	3.8020	-0.7724	6.06	0.07	-0.750			
0.2230	14271.56	3.7990	3.7990	-0.7693	6.06	0.07	-0.750			
0.2253	14420.90	3.7960	3.7959	-0.7713	6.07	0.08	-0.750			
0.2276	14568.59	3.7930	3.7932	-0.7694	6.07	0.08	-0.750			
0.2299	14716.03	3.7900	3.7899	-0.7692	6.08	0.09	-0.750			
0.2322	14862.80	3.7870	3.7870	-0.7704	6.08	0.09	-0.750			
0.2346	15011.20	3.7840	3.7840	-0.7684	6.09	0.10	-0.750			
0.2368	15158.27	3.7810	3.7810	-0.7707	6.09	0.10	-0.750			
0.2392	15306.75	3.7780	3.7780	-0.7752	6.10	0.11	-0.750			
0.2415	15455.21	3.7750	3.7750	-0.7740	6.10	0.11	-0.750			
0.2438	15603.47	3.7720	3.7719	-0.7775	6.11	0.12	-0.750			
0.2461	15752.72	3.7690	3.7690	-0.7758	6.12	0.13	-0.750			
0.2485	15901.84	3.7660	3.7660	-0.7780	6.12	0.13	-0.750			
0.2508	16052.58	3.7630	3.7630	-0.7831	6.13	0.14	-0.750			
0.2532	16202.45	3.7600	3.7600	-0.7807	6.13	0.14	-0.750			
0.2555	16351.64	3.7570	3.7570	-0.7789	6.14	0.15	-0.750			
0.2578	16501.80	3.7540	3.7540	-0.7814	6.14	0.15	-0.750			
0.2602	16650.91	3.7510	3.7511	-0.7802	6.14	0.15	-0.750			
0.2625	16801.36	3.7480	3.7479	-0.7849	6.15	0.16	-0.750			
0.2649	16951.15	3.7450	3.7453	-0.7850	6.15	0.16	-0.750			
0.2672	17101.55	3.7420	3.7420	-0.7914	6.15	0.16	-0.750			
0.2696	17255.42	3.7390	3.7390	-0.7991	6.16	0.17	-0.750			
0.2720	17409.89	3.7360	3.7359	-0.8028	6.16	0.17	-0.750			
0.2744	17563.80	3.7330	3.7329	-0.8054	6.17	0.18	-0.750			
0.2769	17718.70	3.7300	3.7302	-0.8110	6.17	0.18	-0.750			
0.2793	17874.53	3.7270	3.7269	-0.8117	6.17	0.18	-0.750			
0.2817	18030.58	3.7240	3.7240	-0.8181	6.18	0.19	-0.750			
0.2841	18185.38	3.7210	3.7211	-0.8218	6.19	0.20	-0.750			
0.2866	18344.63	3.7180	3.7179	-0.8313	6.19	0.20	-0.750			
0.2892	18505.99	3.7150	3.7151	-0.8444	6.20	0.21	-0.750			
0.2917	18669.36	3.7120	3.7119	-0.8522	6.20	0.21	-0.750			
0.2943	18834.37	3.7090	3.7090	-0.8590	6.21	0.22	-0.750			
0.2969	19001.43	3.7060	3.7060	-0.8660	6.21	0.22	-0.750			
0.2995	19166.28	3.7030	3.7030	-0.8704	6.22	0.23	-0.750			
0.3021	19335.08	3.7000	3.7001	-0.8752	6.22	0.23	-0.750			
0.3047	19503.02	3.6970	3.6970	-0.8851	6.22	0.23	-0.750			
0.3074	19673.17	3.6940	3.6940	-0.8893	6.22	0.23	-0.750			
0.3101	19846.94	3.6910	3.6910	-0.8950	6.23	0.24	-0.750			
0.3128	20018.40	3.6880	3.6880	-0.9018	6.23	0.24	-0.750			
0.3155	20192.06	3.6850	3.6852	-0.9101	6.23	0.24	-0.750			
0.3182	20367.77	3.6820	3.6820	-0.9202	6.24	0.25	-0.750			
0.3210	20545.92	3.6790	3.6789	-0.9259	6.24	0.25	-0.750			
0.3238	20722.95	3.6760	3.6759	-0.9323	6.24	0.25	-0.750			
0.3266	20903.25	3.6730	3.6732	-0.9443	6.25	0.26	-0.750			
0.3294	21084.58	3.6700	3.6699	-0.9611	6.25	0.26	-0.750			
0.3324	21270.49	3.6670	3.6669	-0.9639	6.26	0.27	-0.750			
0.3353	21456.98	3.6640	3.6640	-0.9738	6.26	0.27	-0.750			
0.3382	21643.23	3.6610	3.6610	-0.9857	6.27	0.28	-0.750			
0.3412	21837.15	3.6580	3.6580	-1.0020	6.27	0.28	-0.750			
0.3442	22030.29	3.6550	3.6549	-1.0076	6.27	0.28	-0.750			
0.3472	22223.70	3.6520	3.6520	-1.0118	6.27	0.28	-0.750			
0.3503	22417.84	3.6490	3.6491	-1.0150	6.27	0.28	-0.750			
0.3534	22614.45	3.6460	3.6460	-1.0430	6.27	0.28	-0.750			
0.3565	22814.99	3.6430	3.6430	-1.0494	6.28	0.29	-0.750			
0.3597	23018.45	3.6400	3.6399	-1.0548	6.28	0.29	-0.750			
0.3629	23223.43	3.6370	3.6370	-1.0674	6.29	0.30	-0.750			
0.3661	23429.03	3.6340	3.6341	-1.0911	6.29	0.30	-0.750			
0.3694	23639.43	3.6310	3.6310	-1.1069	6.29	0.30	-0.750			
0.3727	23853.16	3.6280	3.6279	-1.1174	6.28	0.29	-0.750			
0.3760	24066.89	3.6250	3.6250	-1.1261	6.28	0.29	-0.750			
0.3795	24289.10	3.6220	3.6219	-1.1564	6.28	0.29	-0.750			
0.3831	24515.67	3.6190	3.6189	-1.1718	6.28	0.29	-0.750			
0.3866	24739.71	3.6160	3.6159	-1.1748	6.29	0.30	-0.750			
0.3900	24962.88	3.6130	3.6134	-1.1757	6.29	0.30	-0.750			
0.3937	25194.02	3.6100	3.6100	-1.1934	6.30	0.31	-0.750			
0.3972	25423.59	3.6070	3.6070	-1.2070	6.30	0.31	-0.750			
0.4008	25653.56	3.6040	3.6038	-1.2183	6.31	0.32	-0.750			
0.4046	25891.37	3.6010	3.6010	-1.2364	6.31	0.32	-0.750			
0.4083	26129.33	3.5980	3.5980	-1.2477	6.31	0.32	-0.750			
0.4121	26371.61	3.5950	3.5950	-1.2598	6.31	0.32	-0.750	0.482	1.107	
0.4158	26613.49	3.5920	3.5921	-1.2683	6.31	0.32	-0.750			
0.4197	26860.70	3.5890	3.5889	-1.2822	6.31	0.32	-0.750			
0.4236	27107.20	3.5860	3.5860	-1.2869	6.31	0.32	-0.750			
0.4274	27356.07	3.5830	3.5832	-1.3115	6.31	0.32	-0.750			
0.4315	27612.94	3.5800	3.5798	-1.3215	6.31	0.32	-0.750			
0.4354	27867.00	3.5770	3.5769	-1.3283	6.32	0.33	-0.750			
0.4394	28123.70	3.5740	3.5744	-1.3504	6.32	0.33	-0.750			
0.4435	28387.19	3.5710	3.5709	-1.3653	6.32	0.33	-0.750			
0.4476	28648.37	3.5680	3.5678	-1.3717	6.33	0.34	-0.750			
0.4517	28911.44	3.5650	3.5654	-1.3840	6.33	0.34	-0.750			
0.4560	29183.07	3.5620	3.5618	-1.4031	6.33	0.34	-0.750			
0.4602	29451.04	3.5590	3.5589	-1.4176	6.33	0.34	-0.750			
0.4645	29725.05	3.5560	3.5563	-1.4380	6.33	0.34	-0.750			
0.4689	30010.65	3.5530	3.5527	-1.4714	6.34	0.35	-0.750			
0.4733	30292.86	3.5500	3.5501	-1.4708	6.34	0.35	-0.750			
0.4778	30576.48	3.5470	3.5473	-1.4707	6.35	0.36	-0.750			
0.4822	30863.42	3.5440	3.5442	-1.4807	6.35	0.36	-0.750			
0.4866	31142.20	3.5410	3.5408	-1.4977	6.35	0.36	-0.750			
0.4910	31426.13	3.5380	3.5382	-1.4973	6.35	0.36	-0.750			
0.4957	31726.36	3.5350	3.5347	-1.5392	6.35	0.36	-0.750			
0.5005	32029.32	3.5320	3.5321	-1.5622	6.36	0.37	-0.750			
0.5052	32333.41	3.5290	3.5289	-1.5535	6.36	0.37	-0.750			
0.5098	32627.19	3.5260	3.5257	-1.5799	6.37	0.38	-0.750			
0.5145	32925.95	3.5230	3.5231	-1.5647	6.37	0.38	-0.750			
0.5190	33218.41	3.5200	3.5205	-1.5851	6.37	0.38	-0.750			
0.5238	33525.36	3.5170	3.5169	-1.5959	6.37	0.38	-0.750			
0.5286	33833.47	3.5140	3.5136	-1.6298	6.37	0.38	-0.750			
0.5337	34159.53	3.5110	3.5108	-1.6463	6.39	0.40	-0.750			
0.5388	34480.27	3.5080	3.5077	-1.6723	6.40	0.41	-0.750			
0.5438	34801.34	3.5050	3.5050	-1.6749	6.41	0.42	-0.750			
0.5486	35112.76	3.5020	3.5019	-1.6438	6.41	0.42	-0.750			
0.5536	35427.75	3.4990	3.4992	-1.6312	6.42	0.43	-0.750			
0.5585	35745.05	3.4960	3.4959	-1.6215	6.42	0.43	-0.750			
0.5633	36054.05	3.4930	3.4929	-1.6068	6.43	0.44	-0.750			
0.5683	36369.65	3.4900	3.4899	-1.6017	6.44	0.45	-0.750			
0.5730	36670.07	3.4870	3.4867	-1.5982	6.45	0.46	-0.750			
0.5779	36985.00	3.4840	3.4841	-1.5567	6.46	0.47	-0.750			
0.5825	37282.78	3.4810	3.4812	-1.5616	6.47	0.48	-0.750			
0.5872	37581.83	3.4780	3.4783	-1.5753	6.48	0.49	-0.750			
0.5919	37884.05	3.4750	3.4745	-1.5697	6.49	0.50	-0.750			
0.5968	38194.52	3.4720	3.4725	-1.5711	6.50	0.51	-0.750			
0.6015	38496.34	3.4690	3.4692	-1.5596	6.51	0.52	-0.750			
0.6062	38798.30	3.4660	3.4661	-1.5555	6.52	0.53	-0.750			
0.6108	39091.58	3.4630	3.4628	-1.5395	6.54	0.55	-0.750			
0.6154	39384.31	3.4600	3.4601	-1.5364	6.55	0.56	-0.750			
0.6199	39675.77	3.4570	3.4571	-1.5198	6.57	0.58	-0.750			
0.6246	39972.37	3.4540	3.4540	-1.5022	6.58	0.59	-0.750			
0.6292	40267.26	3.4510	3.4511	-1.4830	6.60	0.61	-0.750			
0.6336	40549.55	3.4480	3.4479	-1.4519	6.61	0.62	-0.750			
0.6378	40818.63	3.4450	3.4449	-1.4193	6.62	0.63	-0.750			
0.6419	41083.30	3.4420	3.4419	-1.3776	6.64	0.65	-0.750			
0.6461	41351.37	3.4390	3.4390	-1.3661	6.66	0.67	-0.750			
0.6502	41612.15	3.4360	3.4360	-1.3451	6.67	0.68	-0.750			
0.6542	41867.60	3.4330	3.4330	-1.3138	6.69	0.70	-0.750			
0.6581	42120.54	3.4300	3.4299	-1.2856	6.70	0.71	-0.750			
0.6619	42362.08	3.4270	3.4270	-1.2526	6.72	0.73	-0.750			
0.6656	42599.17	3.4240	3.4241	-1.2285	6.73	0.74	-0.750			
0.6693	42834.51	3.4210	3.4210	-1.2035	6.75	0.76	-0.750			
0.6728	43062.28	3.4180	3.4179	-1.1749	6.77	0.78	-0.750			
0.6763	43284.66	3.4150	3.4150	-1.1470	6.79	0.80	-0.750			
0.6797	43502.66	3.4120	3.4119	-1.1279	6.80	0.81	-0.750			
0.6831	43716.96	3.4090	3.4090	-1.1030	6.82	0.83	-0.750			
0.6863	43925.48	3.4060	3.4059	-1.0757	6.83	0.84	-0.750			
0.6895	44128.26	3.4030	3.4030	-1.0522	6.85	0.86	-0.750			
0.6927	44331.38	3.4000	3.4000	-1.0328	6.87	0.88	-0.750			
0.6957	44527.20	3.3970	3.3970	-1.0056	6.89	0.90	-0.750			
0.6987	44719.03	3.3940	3.3940	-0.9790	6.91	0.92	-0.750			
0.7016	44903.83	3.3910	3.3910	-0.9495	6.93	0.94	-0.750			
0.7044	45082.78	3.3880	3.3880	-0.9264	6.94	0.95	-0.750			
0.7072	45257.86	3.3850	3.3850	-0.9001	6.95	0.96	-0.750			
0.7098	45426.79	3.3820	3.3820	-0.8740	6.97	0.98	-0.750			
0.7124	45592.25	3.3790	3.3790	-0.8539	6.98	0.99	-0.750			
0.7149	45754.99	3.3760	3.3762	-0.8315	6.99	1.00	-0.750			
0.7174	45912.99	3.3730	3.3729	-0.8076	7.01	1.02	-0.750			
0.7198	46065.28	3.3700	3.3701	-0.7890	7.02	1.03	-0.750			
0.7221	46214.21	3.3670	3.3670	-0.7685	7.04	1.05	-0.750			
0.7244	46359.85	3.3640	3.3640	-0.7515	7.05	1.06	-0.750			
0.7266	46502.49	3.3610	3.3609	-0.7359	7.07	1.08	-0.750			
