Ah_balance (normalized)	Ah_balance (mAh)	Voltage - fit (V)	Voltage -  interpolate (V)	dQ/dV (1/V)	Temperature (°C)	Temperature - diff (°C)	Current (C)	R_DC 0ms (mOhm)	R_DC 50ms (mOhm)	R_DC 50 ms PEC (mOhm)
0.1813	11602.16	4.0800	4.0800	0.8156	7.54	1.55	0.750			
0.1837	11755.81	4.0770	4.0769	0.8014	7.54	1.55	0.750			
0.1861	11911.02	4.0740	4.0741	0.7921	7.54	1.55	0.750			
0.1885	12061.96	4.0710	4.0710	0.7794	7.53	1.54	0.750			
0.1908	12209.35	4.0680	4.0681	0.7770	7.53	1.54	0.750			
0.1931	12356.38	4.0650	4.0649	0.7756	7.53	1.54	0.750			
0.1954	12502.72	4.0620	4.0620	0.7770	7.52	1.53	0.750			
0.1977	12650.21	4.0590	4.0591	0.7905	7.52	1.53	0.750			
0.2000	12802.19	4.0560	4.0560	0.8038	7.51	1.52	0.750			
0.2025	12962.20	4.0530	4.0528	0.8189	7.51	1.52	0.750			
0.2050	13121.33	4.0500	4.0500	0.8253	7.51	1.52	0.750			
0.2075	13281.07	4.0470	4.0472	0.8197	7.50	1.51	0.750			
0.2100	13439.22	4.0440	4.0441	0.8259	7.50	1.51	0.750			
0.2124	13595.14	4.0410	4.0410	0.8239	7.49	1.50	0.750			
0.2149	13753.44	4.0380	4.0378	0.8245	7.49	1.50	0.750			
0.2174	13910.77	4.0350	4.0350	0.8291	7.48	1.49	0.750			
0.2199	14073.30	4.0320	4.0320	0.8265	7.48	1.49	0.750			
0.2224	14231.96	4.0290	4.0291	0.8418	7.47	1.48	0.750			
0.2249	14393.16	4.0260	4.0260	0.8419	7.46	1.47	0.750			
0.2274	14555.66	4.0230	4.0227	0.8431	7.45	1.46	0.750			
0.2300	14717.81	4.0200	4.0201	0.8460	7.45	1.46	0.750			
0.2325	14882.60	4.0170	4.0171	0.8484	7.44	1.45	0.750			
0.2351	15045.33	4.0140	4.0140	0.8489	7.44	1.45	0.750			
0.2376	15207.11	4.0110	4.0110	0.8475	7.43	1.44	0.750			
0.2401	15369.23	4.0080	4.0076	0.8499	7.43	1.44	0.750			
0.2427	15534.34	4.0050	4.0050	0.8581	7.43	1.44	0.750			
0.2453	15700.52	4.0020	4.0020	0.8643	7.42	1.43	0.750			
0.2479	15867.31	3.9990	3.9990	0.8720	7.42	1.43	0.750			
0.2506	16036.77	3.9960	3.9960	0.8738	7.41	1.42	0.750			
0.2532	16202.90	3.9930	3.9929	0.8722	7.41	1.42	0.750			
0.2558	16371.04	3.9900	3.9900	0.8710	7.41	1.42	0.750			
0.2584	16538.62	3.9870	3.9871	0.8750	7.40	1.41	0.750			
0.2610	16705.38	3.9840	3.9840	0.8758	7.40	1.41	0.750			
0.2637	16874.22	3.9810	3.9810	0.8814	7.39	1.40	0.750			
0.2663	17041.50	3.9780	3.9781	0.8826	7.39	1.40	0.750			
0.2689	17212.74	3.9750	3.9749	0.8871	7.38	1.39	0.750			
0.2716	17383.77	3.9720	3.9721	0.8929	7.37	1.38	0.750			
0.2743	17556.65	3.9690	3.9689	0.8944	7.36	1.37	0.750			
0.2770	17728.18	3.9660	3.9660	0.8962	7.35	1.36	0.750			
0.2797	17901.23	3.9630	3.9631	0.8995	7.35	1.36	0.750			
0.2824	18072.86	3.9600	3.9600	0.9041	7.34	1.35	0.750			
0.2851	18246.86	3.9570	3.9570	0.9126	7.34	1.35	0.750			
0.2878	18422.03	3.9540	3.9540	0.9194	7.33	1.34	0.750			
0.2906	18599.62	3.9510	3.9509	0.9269	7.33	1.34	0.750			
0.2934	18779.85	3.9480	3.9480	0.9291	7.32	1.33	0.750			
0.2962	18957.11	3.9450	3.9450	0.9398	7.31	1.32	0.750			
0.2991	19139.36	3.9420	3.9420	0.9438	7.30	1.31	0.750			
0.3019	19320.06	3.9390	3.9389	0.9473	7.29	1.30	0.750			
0.3048	19504.17	3.9360	3.9361	0.9480	7.28	1.29	0.750			
0.3076	19686.51	3.9330	3.9330	0.9560	7.27	1.28	0.750			
0.3105	19869.29	3.9300	3.9300	0.9652	7.27	1.28	0.750			
0.3134	20054.77	3.9270	3.9271	0.9747	7.26	1.27	0.750			
0.3163	20241.00	3.9240	3.9240	0.9812	7.25	1.26	0.750			
0.3193	20432.19	3.9210	3.9211	0.9868	7.24	1.25	0.750			
0.3222	20622.18	3.9180	3.9180	0.9965	7.23	1.24	0.750			
0.3252	20815.12	3.9150	3.9151	1.0053	7.22	1.23	0.750			
0.3282	21007.29	3.9120	3.9120	1.0096	7.21	1.22	0.750			
0.3313	21201.93	3.9090	3.9090	1.0137	7.20	1.21	0.750			
0.3343	21397.50	3.9060	3.9060	1.0260	7.19	1.20	0.750			
0.3374	21595.51	3.9030	3.9030	1.0397	7.18	1.19	0.750			
0.3406	21799.28	3.9000	3.8999	1.0422	7.17	1.18	0.750			
0.3437	21996.15	3.8970	3.8971	1.0519	7.16	1.17	0.750			
0.3468	22197.15	3.8940	3.8940	1.0743	7.16	1.17	0.750			
0.3501	22405.02	3.8910	3.8911	1.0910	7.15	1.16	0.750			
0.3534	22618.51	3.8880	3.8877	1.0981	7.15	1.16	0.750			
0.3567	22829.96	3.8850	3.8850	1.1142	7.13	1.14	0.750			
0.3601	23044.43	3.8820	3.8822	1.1348	7.12	1.13	0.750			
0.3635	23264.96	3.8790	3.8791	1.1570	7.11	1.12	0.750			
0.3670	23490.38	3.8760	3.8760	1.1433	7.09	1.10	0.750			
0.3704	23707.98	3.8730	3.8730	1.1514	7.08	1.09	0.750			
0.3739	23929.90	3.8700	3.8703	1.1754	7.07	1.08	0.750			
0.3775	24161.06	3.8670	3.8666	1.1852	7.05	1.06	0.750			
0.3810	24384.05	3.8640	3.8641	1.1938	7.05	1.06	0.750			
0.3846	24613.53	3.8610	3.8611	1.2161	7.04	1.05	0.750			
0.3883	24851.10	3.8580	3.8582	1.2410	7.03	1.04	0.750			
0.3921	25096.24	3.8550	3.8549	1.2749	7.02	1.03	0.750			
0.3959	25337.29	3.8520	3.8520	1.2803	7.00	1.01	0.750			
0.3998	25586.39	3.8490	3.8491	1.2963	6.98	0.99	0.750			
0.4038	25841.54	3.8460	3.8459	1.3238	6.97	0.98	0.750			
0.4076	26087.92	3.8430	3.8430	1.3604	6.95	0.96	0.750			
0.4118	26353.48	3.8400	3.8400	1.3861	6.93	0.94	0.750			
0.4160	26623.28	3.8370	3.8370	1.4224	6.92	0.93	0.750	0.393	0.968	
0.4204	26902.92	3.8340	3.8344	1.4443	6.90	0.91	0.750			
0.4247	27183.15	3.8310	3.8312	1.4941	6.88	0.89	0.750			
0.4293	27472.41	3.8280	3.8280	1.5181	6.87	0.88	0.750			
0.4338	27761.36	3.8250	3.8249	1.5209	6.86	0.87	0.750			
0.4385	28061.64	3.8220	3.8221	1.5534	6.84	0.85	0.750			
0.4432	28365.16	3.8190	3.8192	1.5888	6.83	0.84	0.750			
0.4480	28670.47	3.8160	3.8160	1.6328	6.81	0.82	0.750			
0.4528	28981.48	3.8130	3.8128	1.6552	6.79	0.80	0.750			
0.4579	29302.79	3.8100	3.8101	1.7030	6.77	0.78	0.750			
0.4631	29637.86	3.8070	3.8072	1.7640	6.76	0.77	0.750			
0.4685	29983.36	3.8040	3.8042	1.7934	6.74	0.75	0.750			
0.4739	30332.07	3.8010	3.8011	1.8392	6.71	0.72	0.750			
0.4795	30688.18	3.7980	3.7981	1.8770	6.68	0.69	0.750			
0.4852	31050.23	3.7950	3.7951	1.9089	6.66	0.67	0.750			
0.4910	31420.86	3.7920	3.7920	1.9038	6.64	0.65	0.750			
0.4968	31796.44	3.7890	3.7889	1.9559	6.61	0.62	0.750			
0.5025	32163.12	3.7860	3.7857	2.0105	6.59	0.60	0.750			
0.5087	32558.63	3.7830	3.7833	2.0658	6.56	0.57	0.750			
0.5151	32964.31	3.7800	3.7799	2.1018	6.53	0.54	0.750			
0.5214	33372.52	3.7770	3.7768	2.1577	6.51	0.52	0.750			
0.5282	33805.67	3.7740	3.7736	2.1935	6.49	0.50	0.750			
0.5346	34211.84	3.7710	3.7712	2.1710	6.47	0.48	0.750			
0.5413	34640.06	3.7680	3.7684	2.1941	6.45	0.46	0.750			
0.5479	35063.04	3.7650	3.7650	2.1881	6.42	0.43	0.750			
0.5543	35477.11	3.7620	3.7621	2.2388	6.39	0.40	0.750			
0.5611	35911.54	3.7590	3.7589	2.2680	6.37	0.38	0.750			
0.5680	36354.59	3.7560	3.7560	2.3422	6.34	0.35	0.750			
0.5752	36814.23	3.7530	3.7529	2.4039	6.31	0.32	0.750			
0.5824	37273.12	3.7500	3.7501	2.4628	6.28	0.29	0.750			
0.5900	37760.04	3.7470	3.7470	2.4877	6.25	0.26	0.750			
0.5975	38237.75	3.7440	3.7441	2.5882	6.23	0.24	0.750			
0.6053	38739.87	3.7410	3.7407	2.6530	6.20	0.21	0.750			
0.6134	39257.50	3.7380	3.7380	2.8006	6.17	0.18	0.750			
0.6221	39814.76	3.7350	3.7349	2.9144	6.14	0.15	0.750			
0.6311	40391.59	3.7320	3.7321	3.0436	6.11	0.12	0.750			
0.6403	40976.37	3.7290	3.7292	3.0696	6.07	0.08	0.750			
0.6496	41575.71	3.7260	3.7259	3.1223	6.06	0.07	0.750			
0.6589	42172.20	3.7230	3.7231	3.0676	6.03	0.04	0.750			
0.6680	42749.24	3.7200	3.7200	2.9040	6.00	0.01	0.750			
0.6764	43290.38	3.7170	3.7171	2.6435	5.98	-0.01	0.750			
0.6837	43754.46	3.7140	3.7143	2.3129	5.98	-0.01	0.750			
0.6901	44165.98	3.7110	3.7109	2.0027	5.97	-0.02	0.750			
0.6957	44525.98	3.7080	3.7082	1.7660	5.97	-0.02	0.750			
0.7006	44839.37	3.7050	3.7053	1.5490	5.97	-0.02	0.750			
0.7049	45115.38	3.7020	3.7020	1.3558	5.97	-0.02	0.750			
0.7085	45345.65	3.6990	3.6990	1.1994	5.97	-0.02	0.750			
0.7117	45548.85	3.6960	3.6959	1.0605	5.97	-0.02	0.750			
0.7146	45733.19	3.6930	3.6928	0.9693	5.97	-0.02	0.750			
0.7173	45906.94	3.6900	3.6901	0.8945	5.97	-0.02	0.750			
0.7199	46072.11	3.6870	3.6870	0.8319	5.97	-0.02	0.750			
0.7223	46225.33	3.6840	3.6839	0.7843	5.97	-0.02	0.750			
0.7245	46370.30	3.6810	3.6810	0.7315	5.97	-0.02	0.750			
0.7266	46504.97	3.6780	3.6781	0.6805	5.97	-0.02	0.750			
0.7286	46632.35	3.6750	3.6752	0.6317	5.97	-0.02	0.750			
0.7305	46748.85	3.6720	3.6720	0.5785	5.97	-0.02	0.750			
0.7321	46855.03	3.6690	3.6690	0.5266	5.98	-0.01	0.750			
0.7336	46950.94	3.6660	3.6661	0.4762	5.98	-0.01	0.750			
0.7349	47035.22	3.6630	3.6630	0.4256	5.98	-0.01	0.750			
0.7361	47111.85	3.6600	3.6600	0.3835	5.98	-0.01	0.750			
0.7372	47179.93	3.6570	3.6569	0.3388	5.98	-0.01	0.750			
0.7381	47240.96	3.6540	3.6540	0.3005	5.99	-0.00	0.750			
0.7390	47295.72	3.6510	3.6510	0.2631	5.99	-0.00	0.750			
0.7397	47342.45	3.6480	3.6480	0.2246	5.99	-0.00	0.750			
0.7403	47382.29	3.6450	3.6451	0.1866	5.99	0.00	0.750			
0.7409	47415.05	3.6420	3.6420	0.1489	5.99	0.00	0.750			
0.7413	47440.00	3.6390	3.6392	0.1092	5.99	0.00	0.750			
0.7415	47457.14	3.6360	3.6369	0.0693	5.99	0.00	0.750			
0.7417	47466.58	3.6330	3.6345	0.0302	5.99	0.00	0.750			
