Ah_balance (normalized)	Ah_balance (mAh)	Voltage - fit (V)	Voltage -  interpolate (V)	dQ/dV (1/V)	Temperature (°C)	Temperature - diff (°C)	Current (C)	R_DC 0ms (mOhm)	R_DC 50ms (mOhm)	R_DC 50 ms PEC (mOhm)
0.0934	5979.21	4.0040	4.0038	-0.0584	5.97	0.00	-0.750			
0.0937	5993.79	4.0010	4.0007	-0.0902	5.97	0.00	-0.750			
0.0940	6014.14	3.9980	3.9979	-0.1185	5.97	0.00	-0.750			
0.0944	6040.01	3.9950	3.9949	-0.1450	5.97	0.00	-0.750			
0.0949	6070.43	3.9920	3.9920	-0.1706	5.97	0.00	-0.750			
0.0954	6105.86	3.9890	3.9890	-0.1947	5.97	0.00	-0.750			
0.0960	6146.73	3.9860	3.9860	-0.2188	5.97	0.00	-0.750			
0.0967	6191.10	3.9830	3.9830	-0.2411	5.97	0.00	-0.750			
0.0975	6239.19	3.9800	3.9801	-0.2644	5.97	0.00	-0.750			
0.0983	6291.94	3.9770	3.9770	-0.2880	5.97	0.00	-0.750			
0.0992	6349.13	3.9740	3.9739	-0.3116	5.97	0.00	-0.750			
0.1002	6411.22	3.9710	3.9710	-0.3361	5.97	0.00	-0.750			
0.1012	6478.42	3.9680	3.9680	-0.3601	5.97	0.00	-0.750			
0.1023	6549.59	3.9650	3.9650	-0.3848	5.97	0.00	-0.750			
0.1035	6626.49	3.9620	3.9620	-0.4079	5.97	0.00	-0.750			
0.1048	6706.76	3.9590	3.9590	-0.4308	5.97	0.00	-0.750			
0.1061	6792.09	3.9560	3.9560	-0.4533	5.97	0.00	-0.750			
0.1075	6881.32	3.9530	3.9531	-0.4748	5.97	0.00	-0.750			
0.1090	6975.25	3.9500	3.9500	-0.4929	5.97	0.00	-0.750			
0.1105	7072.18	3.9470	3.9470	-0.5111	5.97	0.00	-0.750			
0.1121	7171.70	3.9440	3.9440	-0.5268	5.97	0.00	-0.750			
0.1137	7274.18	3.9410	3.9411	-0.5464	5.97	-0.00	-0.750			
0.1153	7380.00	3.9380	3.9379	-0.5636	5.97	-0.00	-0.750			
0.1170	7490.24	3.9350	3.9350	-0.5815	5.96	-0.01	-0.750			
0.1188	7603.62	3.9320	3.9320	-0.6009	5.96	-0.01	-0.750			
0.1207	7722.70	3.9290	3.9290	-0.6148	5.96	-0.01	-0.750			
0.1225	7842.22	3.9260	3.9259	-0.6255	5.96	-0.01	-0.750			
0.1244	7964.69	3.9230	3.9230	-0.6341	5.95	-0.02	-0.750			
0.1264	8086.58	3.9200	3.9201	-0.6417	5.95	-0.02	-0.750			
0.1283	8210.28	3.9170	3.9170	-0.6492	5.96	-0.01	-0.750			
0.1302	8335.55	3.9140	3.9140	-0.6561	5.96	-0.01	-0.750			
0.1322	8461.96	3.9110	3.9109	-0.6610	5.97	0.00	-0.750			
0.1342	8590.32	3.9080	3.9080	-0.6702	5.98	0.01	-0.750			
0.1362	8719.45	3.9050	3.9051	-0.6755	5.98	0.01	-0.750			
0.1383	8849.71	3.9020	3.9021	-0.6822	5.99	0.02	-0.750			
0.1403	8980.33	3.8990	3.8990	-0.6881	5.99	0.02	-0.750			
0.1424	9113.52	3.8960	3.8960	-0.6967	6.00	0.03	-0.750			
0.1445	9248.53	3.8930	3.8930	-0.6991	6.00	0.03	-0.750			
0.1466	9385.21	3.8900	3.8900	-0.7061	6.00	0.03	-0.750			
0.1487	9519.98	3.8870	3.8871	-0.7079	6.01	0.04	-0.750			
0.1509	9656.67	3.8840	3.8841	-0.7105	6.01	0.04	-0.750			
0.1530	9793.09	3.8810	3.8810	-0.7103	6.02	0.05	-0.750			
0.1551	9927.39	3.8780	3.8780	-0.7129	6.02	0.05	-0.750			
0.1573	10065.42	3.8750	3.8751	-0.7181	6.03	0.06	-0.750			
0.1595	10205.92	3.8720	3.8719	-0.7209	6.03	0.06	-0.750			
0.1616	10343.42	3.8690	3.8689	-0.7187	6.04	0.07	-0.750			
0.1638	10481.11	3.8660	3.8662	-0.7183	6.04	0.07	-0.750			
0.1659	10619.64	3.8630	3.8631	-0.7200	6.05	0.08	-0.750			
0.1681	10755.82	3.8600	3.8600	-0.7263	6.05	0.08	-0.750			
0.1703	10896.35	3.8570	3.8568	-0.7242	6.06	0.09	-0.750			
0.1724	11035.82	3.8540	3.8540	-0.7299	6.06	0.09	-0.750			
0.1746	11177.26	3.8510	3.8510	-0.7280	6.07	0.10	-0.750			
0.1768	11317.84	3.8480	3.8479	-0.7297	6.07	0.10	-0.750			
0.1790	11458.10	3.8450	3.8450	-0.7307	6.08	0.11	-0.750			
0.1812	11598.04	3.8420	3.8419	-0.7282	6.09	0.12	-0.750			
0.1834	11737.56	3.8390	3.8389	-0.7216	6.09	0.12	-0.750			
0.1856	11877.25	3.8360	3.8361	-0.7284	6.10	0.13	-0.750			
0.1877	12015.53	3.8330	3.8331	-0.7263	6.11	0.14	-0.750			
0.1899	12155.41	3.8300	3.8298	-0.7288	6.12	0.15	-0.750			
0.1921	12293.21	3.8270	3.8270	-0.7283	6.12	0.15	-0.750			
0.1943	12433.68	3.8240	3.8241	-0.7333	6.13	0.16	-0.750			
0.1965	12575.97	3.8210	3.8210	-0.7358	6.14	0.17	-0.750			
0.1988	12720.12	3.8180	3.8180	-0.7395	6.14	0.17	-0.750			
0.2009	12860.58	3.8150	3.8151	-0.7360	6.15	0.18	-0.750			
0.2032	13002.16	3.8120	3.8120	-0.7372	6.16	0.19	-0.750			
0.2054	13142.82	3.8090	3.8090	-0.7420	6.17	0.20	-0.750			
0.2076	13285.26	3.8060	3.8060	-0.7415	6.18	0.21	-0.750			
0.2098	13429.10	3.8030	3.8029	-0.7449	6.19	0.22	-0.750			
0.2121	13572.72	3.8000	3.7999	-0.7437	6.20	0.23	-0.750			
0.2143	13715.48	3.7970	3.7971	-0.7468	6.20	0.23	-0.750			
0.2165	13859.02	3.7940	3.7939	-0.7466	6.21	0.24	-0.750			
0.2188	14001.24	3.7910	3.7910	-0.7504	6.21	0.24	-0.750			
0.2210	14145.06	3.7880	3.7879	-0.7511	6.22	0.25	-0.750			
0.2233	14291.57	3.7850	3.7850	-0.7587	6.22	0.25	-0.750			
0.2256	14439.08	3.7820	3.7821	-0.7597	6.23	0.26	-0.750			
0.2279	14585.15	3.7790	3.7790	-0.7578	6.24	0.27	-0.750			
0.2301	14729.01	3.7760	3.7760	-0.7587	6.24	0.27	-0.750			
0.2324	14875.24	3.7730	3.7730	-0.7615	6.25	0.28	-0.750			
0.2347	15021.59	3.7700	3.7699	-0.7628	6.26	0.29	-0.750			
0.2370	15167.20	3.7670	3.7670	-0.7667	6.27	0.30	-0.750			
0.2393	15315.51	3.7640	3.7641	-0.7727	6.27	0.30	-0.750			
0.2416	15464.46	3.7610	3.7609	-0.7779	6.28	0.31	-0.750			
0.2440	15613.86	3.7580	3.7580	-0.7806	6.29	0.32	-0.750			
0.2463	15763.59	3.7550	3.7550	-0.7788	6.30	0.33	-0.750			
0.2487	15914.28	3.7520	3.7520	-0.7834	6.30	0.33	-0.750			
0.2510	16065.41	3.7490	3.7492	-0.7865	6.31	0.34	-0.750			
0.2534	16216.03	3.7460	3.7459	-0.7855	6.32	0.35	-0.750			
0.2557	16365.98	3.7430	3.7431	-0.7953	6.33	0.36	-0.750			
0.2581	16519.50	3.7400	3.7400	-0.8019	6.33	0.36	-0.750			
0.2605	16674.41	3.7370	3.7370	-0.8088	6.34	0.37	-0.750			
0.2630	16831.79	3.7340	3.7342	-0.8134	6.35	0.38	-0.750			
0.2654	16987.93	3.7310	3.7310	-0.8171	6.36	0.39	-0.750			
0.2679	17144.76	3.7280	3.7280	-0.8268	6.36	0.39	-0.750			
0.2704	17303.68	3.7250	3.7250	-0.8305	6.37	0.40	-0.750			
0.2729	17463.08	3.7220	3.7219	-0.8313	6.38	0.41	-0.750			
0.2754	17625.54	3.7190	3.7191	-0.8377	6.39	0.42	-0.750			
0.2779	17786.38	3.7160	3.7160	-0.8399	6.39	0.42	-0.750			
0.2804	17947.72	3.7130	3.7130	-0.8520	6.40	0.43	-0.750			
0.2830	18110.85	3.7100	3.7099	-0.8568	6.40	0.43	-0.750			
0.2855	18273.98	3.7070	3.7069	-0.8630	6.41	0.44	-0.750			
0.2882	18446.88	3.7040	3.7042	-0.8619	6.41	0.44	-0.750			
0.2909	18616.30	3.7010	3.7009	-0.8397	6.42	0.45	-0.750			
0.2934	18780.33	3.6980	3.6981	-0.8316	6.43	0.46	-0.750			
0.2958	18933.01	3.6950	3.6954	-0.8191	6.43	0.46	-0.750			
0.2981	19081.36	3.6920	3.6917	-0.8112	6.44	0.47	-0.750			
0.3005	19233.42	3.6890	3.6893	-0.8259	6.45	0.48	-0.750			
0.3029	19385.94	3.6860	3.6859	-0.8497	6.45	0.48	-0.750			
0.3056	19558.14	3.6830	3.6830	-0.8846	6.46	0.49	-0.750			
0.3084	19739.65	3.6800	3.6800	-0.9205	6.46	0.49	-0.750			
0.3113	19921.04	3.6770	3.6770	-0.9417	6.47	0.50	-0.750			
0.3141	20102.76	3.6740	3.6741	-0.9488	6.47	0.50	-0.750			
0.3169	20283.85	3.6710	3.6709	-0.9538	6.48	0.51	-0.750			
0.3198	20467.54	3.6680	3.6680	-0.9609	6.48	0.51	-0.750			
0.3227	20652.65	3.6650	3.6649	-0.9658	6.49	0.52	-0.750			
0.3256	20840.66	3.6620	3.6622	-0.9725	6.49	0.52	-0.750			
0.3286	21029.15	3.6590	3.6590	-0.9862	6.49	0.52	-0.750			
0.3315	21218.66	3.6560	3.6560	-0.9886	6.49	0.52	-0.750			
0.3345	21407.79	3.6530	3.6529	-0.9935	6.50	0.53	-0.750			
0.3375	21601.50	3.6500	3.6500	-1.0009	6.50	0.53	-0.750			
0.3405	21792.32	3.6470	3.6469	-1.0119	6.50	0.53	-0.750			
0.3436	21988.15	3.6440	3.6439	-1.0208	6.50	0.53	-0.750			
0.3466	22183.48	3.6410	3.6410	-1.0308	6.51	0.54	-0.750			
0.3497	22379.84	3.6380	3.6380	-1.0387	6.51	0.54	-0.750			
0.3529	22586.71	3.6350	3.6349	-1.0581	6.51	0.54	-0.750			
0.3561	22791.39	3.6320	3.6320	-1.0636	6.52	0.55	-0.750			
0.3594	22999.11	3.6290	3.6289	-1.0700	6.52	0.55	-0.750			
0.3625	23202.76	3.6260	3.6262	-1.0688	6.53	0.56	-0.750			
0.3658	23409.23	3.6230	3.6229	-1.0885	6.53	0.56	-0.750			
0.3690	23618.16	3.6200	3.6201	-1.0941	6.54	0.57	-0.750			
0.3723	23828.76	3.6170	3.6168	-1.1000	6.54	0.57	-0.750			
0.3756	24040.46	3.6140	3.6144	-1.1120	6.55	0.58	-0.750			
0.3790	24257.78	3.6110	3.6110	-1.1257	6.56	0.59	-0.750			
0.3824	24474.11	3.6080	3.6080	-1.1360	6.56	0.59	-0.750			
0.3858	24692.79	3.6050	3.6049	-1.1426	6.57	0.60	-0.750			
0.3893	24914.79	3.6020	3.6020	-1.1569	6.57	0.60	-0.750			
0.3928	25137.80	3.5990	3.5991	-1.1666	6.57	0.60	-0.750			
0.3963	25362.54	3.5960	3.5960	-1.1784	6.57	0.60	-0.750			
0.3998	25587.51	3.5930	3.5928	-1.1929	6.57	0.60	-0.750			
0.4034	25818.57	3.5900	3.5899	-1.1970	6.57	0.60	-0.750			
0.4070	26049.27	3.5870	3.5872	-1.2068	6.58	0.61	-0.750	0.491	1.074	
0.4106	26281.46	3.5840	3.5840	-1.2223	6.59	0.62	-0.750			
0.4143	26515.67	3.5810	3.5812	-1.2279	6.59	0.62	-0.750			
0.4181	26755.71	3.5780	3.5779	-1.2417	6.60	0.63	-0.750			
0.4218	26995.40	3.5750	3.5750	-1.2507	6.60	0.63	-0.750			
0.4256	27235.80	3.5720	3.5722	-1.2585	6.61	0.64	-0.750			
0.4294	27481.70	3.5690	3.5690	-1.2737	6.61	0.64	-0.750			
0.4332	27724.30	3.5660	3.5660	-1.2811	6.62	0.65	-0.750			
0.4370	27969.74	3.5630	3.5629	-1.3046	6.62	0.65	-0.750			
0.4410	28222.97	3.5600	3.5599	-1.3222	6.62	0.65	-0.750			
0.4450	28480.28	3.5570	3.5569	-1.3336	6.63	0.66	-0.750			
0.4490	28737.46	3.5540	3.5541	-1.3557	6.63	0.66	-0.750			
0.4531	29000.85	3.5510	3.5509	-1.3598	6.63	0.66	-0.750			
0.4573	29264.08	3.5480	3.5479	-1.3703	6.64	0.67	-0.750			
0.4613	29525.05	3.5450	3.5450	-1.3871	6.65	0.68	-0.750			
0.4654	29788.10	3.5420	3.5419	-1.3938	6.65	0.68	-0.750			
0.4698	30064.08	3.5390	3.5389	-1.4213	6.66	0.69	-0.750			
0.4740	30338.95	3.5360	3.5359	-1.4378	6.67	0.70	-0.750			
0.4783	30612.89	3.5330	3.5329	-1.4603	6.67	0.70	-0.750			
0.4829	30902.83	3.5300	3.5299	-1.4645	6.68	0.71	-0.750			
0.4872	31183.19	3.5270	3.5270	-1.4741	6.68	0.71	-0.750			
0.4917	31466.17	3.5240	3.5240	-1.4721	6.69	0.72	-0.750			
0.4961	31753.13	3.5210	3.5209	-1.4937	6.70	0.73	-0.750			
0.5006	32040.54	3.5180	3.5181	-1.4941	6.71	0.74	-0.750			
0.5051	32324.91	3.5150	3.5149	-1.4989	6.72	0.75	-0.750			
0.5096	32614.53	3.5120	3.5124	-1.5014	6.72	0.75	-0.750			
0.5142	32909.71	3.5090	3.5090	-1.5193	6.73	0.76	-0.750			
0.5187	33199.18	3.5060	3.5059	-1.5141	6.74	0.77	-0.750			
0.5233	33490.83	3.5030	3.5030	-1.5255	6.75	0.78	-0.750			
0.5279	33784.08	3.5000	3.5000	-1.5370	6.76	0.79	-0.750			
0.5325	34079.44	3.4970	3.4969	-1.5403	6.77	0.80	-0.750			
0.5371	34375.65	3.4940	3.4939	-1.5374	6.78	0.81	-0.750			
0.5417	34671.23	3.4910	3.4909	-1.5266	6.79	0.82	-0.750			
0.5463	34966.05	3.4880	3.4879	-1.5426	6.80	0.83	-0.750			
0.5510	35263.93	3.4850	3.4851	-1.5191	6.81	0.84	-0.750			
0.5555	35550.38	3.4820	3.4819	-1.5068	6.83	0.86	-0.750			
0.5599	35835.07	3.4790	3.4790	-1.5120	6.84	0.87	-0.750			
0.5645	36127.86	3.4760	3.4761	-1.5036	6.85	0.88	-0.750			
0.5691	36421.47	3.4730	3.4728	-1.5151	6.86	0.89	-0.750			
0.5736	36712.37	3.4700	3.4700	-1.5137	6.87	0.90	-0.750			
0.5782	37007.20	3.4670	3.4668	-1.5167	6.89	0.92	-0.750			
0.5827	37295.54	3.4640	3.4640	-1.4958	6.90	0.93	-0.750			
0.5872	37578.32	3.4610	3.4610	-1.4770	6.91	0.94	-0.750			
0.5915	37859.10	3.4580	3.4579	-1.4605	6.92	0.95	-0.750			
0.5960	38142.86	3.4550	3.4549	-1.4574	6.93	0.96	-0.750			
0.6003	38417.34	3.4520	3.4522	-1.4391	6.95	0.98	-0.750			
0.6046	38693.44	3.4490	3.4490	-1.4239	6.96	0.99	-0.750			
0.6089	38971.55	3.4460	3.4459	-1.4179	6.98	1.01	-0.750			
0.6131	39241.47	3.4430	3.4431	-1.4003	6.99	1.02	-0.750			
0.6173	39507.82	3.4400	3.4400	-1.3761	7.00	1.03	-0.750			
0.6215	39773.63	3.4370	3.4370	-1.3553	7.02	1.05	-0.750			
0.6255	40030.37	3.4340	3.4341	-1.3340	7.03	1.06	-0.750			
0.6294	40284.01	3.4310	3.4310	-1.3142	7.05	1.08	-0.750			
0.6333	40534.34	3.4280	3.4279	-1.2875	7.07	1.10	-0.750			
0.6371	40777.57	3.4250	3.4250	-1.2675	7.08	1.11	-0.750			
0.6409	41020.07	3.4220	3.4220	-1.2404	7.10	1.13	-0.750			
0.6447	41259.42	3.4190	3.4190	-1.2203	7.11	1.14	-0.750			
0.6483	41490.63	3.4160	3.4159	-1.1917	7.12	1.15	-0.750			
0.6518	41715.21	3.4130	3.4131	-1.1668	7.13	1.16	-0.750			
0.6553	41937.86	3.4100	3.4099	-1.1418	7.15	1.18	-0.750			
0.6587	42155.46	3.4070	3.4069	-1.1125	7.16	1.19	-0.750			
0.6620	42365.33	3.4040	3.4040	-1.0838	7.17	1.20	-0.750			
0.6652	42572.48	3.4010	3.4009	-1.0669	7.19	1.22	-0.750			
0.6683	42774.07	3.3980	3.3979	-1.0396	7.20	1.23	-0.750			
0.6714	42972.23	3.3950	3.3949	-1.0087	7.22	1.25	-0.750			
0.6744	43162.31	3.3920	3.3920	-0.9765	7.23	1.26	-0.750			
0.6774	43350.97	3.3890	3.3889	-0.9575	7.25	1.28	-0.750			
0.6802	43531.41	3.3860	3.3859	-0.9359	7.26	1.29	-0.750			
0.6829	43705.52	3.3830	3.3830	-0.9050	7.27	1.30	-0.750			
0.6856	43875.99	3.3800	3.3799	-0.8801	7.29	1.32	-0.750			
0.6882	44046.24	3.3770	3.3772	-0.8662	7.30	1.33	-0.750			
0.6908	44211.94	3.3740	3.3740	-0.8454	7.31	1.34	-0.750			
0.6933	44370.28	3.3710	3.3709	-0.8278	7.33	1.36	-0.750			
0.6957	44526.65	3.3680	3.3680	-0.8034	7.34	1.37	-0.750			
0.6981	44680.34	3.3650	3.3649	-0.7828	7.36	1.39	-0.750			
0.7004	44828.76	3.3620	3.3622	-0.7616	7.37	1.40	-0.750			
0.7027	44973.12	3.3590	3.3590	-0.7399	7.38	1.41	-0.750			
0.7049	45112.36	3.3560	3.3560	-0.7151	7.40	1.43	-0.750			
0.7070	45245.53	3.3530	3.3530	-0.6989	7.41	1.44	-0.750			
0.7090	45376.88	3.3500	3.3500	-0.6823	7.42	1.45	-0.750			
0.7111	45508.98	3.3470	3.3469	-0.6708	7.44	1.47	-0.750			
0.7131	45636.18	3.3440	3.3442	-0.6554	7.45	1.48	-0.750			
0.7150	45760.62	3.3410	3.3410	-0.6390	7.46	1.49	-0.750			
0.7169	45880.66	3.3380	3.3380	-0.6073	7.47	1.50	-0.750			
