Ah_balance (normalized)	Ah_balance (mAh)	Voltage - fit (V)	Voltage -  interpolate (V)	dQ/dV (1/V)	Temperature (°C)	Temperature - diff (°C)	Current (C)	R_DC 0ms (mOhm)	R_DC 50ms (mOhm)	R_DC 50 ms PEC (mOhm)
0.0828	5299.45	4.0170	4.0168	-0.0877	5.99	0.00	-0.750			
0.0831	5319.83	4.0140	4.0137	-0.1191	5.99	0.00	-0.750			
0.0835	5345.44	4.0110	4.0111	-0.1478	5.99	-0.00	-0.750			
0.0840	5376.91	4.0080	4.0080	-0.1742	5.99	-0.00	-0.750			
0.0846	5413.19	4.0050	4.0051	-0.2000	5.99	-0.00	-0.750			
0.0852	5454.55	4.0020	4.0020	-0.2279	5.99	-0.00	-0.750			
0.0859	5500.48	3.9990	3.9990	-0.2526	5.99	-0.00	-0.750			
0.0867	5551.38	3.9960	3.9960	-0.2791	5.98	-0.01	-0.750			
0.0876	5607.28	3.9930	3.9930	-0.3052	5.98	-0.01	-0.750			
0.0886	5668.37	3.9900	3.9899	-0.3320	5.98	-0.01	-0.750			
0.0896	5734.94	3.9870	3.9870	-0.3585	5.98	-0.01	-0.750			
0.0907	5806.31	3.9840	3.9840	-0.3842	5.98	-0.01	-0.750			
0.0919	5882.44	3.9810	3.9810	-0.4107	5.98	-0.01	-0.750			
0.0932	5964.31	3.9780	3.9780	-0.4365	5.97	-0.02	-0.750			
0.0945	6050.50	3.9750	3.9750	-0.4606	5.97	-0.02	-0.750			
0.0960	6141.32	3.9720	3.9720	-0.4867	5.97	-0.02	-0.750			
0.0975	6237.07	3.9690	3.9690	-0.5122	5.97	-0.02	-0.750			
0.0990	6338.14	3.9660	3.9660	-0.5378	5.97	-0.02	-0.750			
0.1007	6444.04	3.9630	3.9630	-0.5619	5.97	-0.02	-0.750			
0.1024	6554.89	3.9600	3.9600	-0.5877	5.97	-0.02	-0.750			
0.1042	6671.11	3.9570	3.9570	-0.6094	5.97	-0.02	-0.750			
0.1061	6791.08	3.9540	3.9539	-0.6277	5.97	-0.02	-0.750			
0.1080	6913.39	3.9510	3.9512	-0.6408	5.97	-0.02	-0.750			
0.1100	7038.00	3.9480	3.9480	-0.6564	5.97	-0.02	-0.750			
0.1120	7165.04	3.9450	3.9450	-0.6696	5.97	-0.02	-0.750			
0.1140	7295.60	3.9420	3.9420	-0.6825	5.97	-0.02	-0.750			
0.1160	7427.14	3.9390	3.9390	-0.6907	5.97	-0.02	-0.750			
0.1182	7562.87	3.9360	3.9360	-0.7033	5.97	-0.02	-0.750			
0.1203	7698.72	3.9330	3.9330	-0.7126	5.97	-0.02	-0.750			
0.1225	7836.99	3.9300	3.9299	-0.7205	5.97	-0.02	-0.750			
0.1246	7975.04	3.9270	3.9269	-0.7273	5.98	-0.01	-0.750			
0.1268	8115.63	3.9240	3.9240	-0.7366	5.98	-0.01	-0.750			
0.1290	8258.46	3.9210	3.9211	-0.7427	5.99	-0.00	-0.750			
0.1313	8403.37	3.9180	3.9179	-0.7506	6.00	0.01	-0.750			
0.1336	8547.95	3.9150	3.9152	-0.7518	6.00	0.01	-0.750			
0.1358	8691.96	3.9120	3.9119	-0.7546	6.00	0.01	-0.750			
0.1381	8836.99	3.9090	3.9090	-0.7607	6.00	0.01	-0.750			
0.1404	8983.47	3.9060	3.9060	-0.7603	6.01	0.02	-0.750			
0.1427	9130.73	3.9030	3.9029	-0.7691	6.01	0.02	-0.750			
0.1450	9278.48	3.9000	3.9000	-0.7708	6.01	0.02	-0.750			
0.1473	9426.48	3.8970	3.8970	-0.7747	6.01	0.02	-0.750			
0.1496	9575.03	3.8940	3.8940	-0.7817	6.02	0.03	-0.750			
0.1520	9726.26	3.8910	3.8910	-0.7796	6.02	0.03	-0.750			
0.1543	9876.34	3.8880	3.8880	-0.7809	6.02	0.03	-0.750			
0.1567	10027.79	3.8850	3.8850	-0.7867	6.03	0.04	-0.750			
0.1590	10177.78	3.8820	3.8822	-0.7840	6.03	0.04	-0.750			
0.1614	10327.05	3.8790	3.8789	-0.7891	6.04	0.05	-0.750			
0.1637	10478.59	3.8760	3.8760	-0.7919	6.04	0.05	-0.750			
0.1661	10630.84	3.8730	3.8730	-0.7926	6.05	0.06	-0.750			
0.1685	10785.47	3.8700	3.8699	-0.7991	6.05	0.06	-0.750			
0.1709	10939.31	3.8670	3.8672	-0.8022	6.06	0.07	-0.750			
0.1733	11093.09	3.8640	3.8640	-0.8042	6.07	0.08	-0.750			
0.1758	11248.26	3.8610	3.8610	-0.8055	6.07	0.08	-0.750			
0.1782	11401.83	3.8580	3.8580	-0.8078	6.08	0.09	-0.750			
0.1806	11557.59	3.8550	3.8550	-0.8123	6.08	0.09	-0.750			
0.1830	11714.45	3.8520	3.8520	-0.8127	6.09	0.10	-0.750			
0.1855	11870.22	3.8490	3.8489	-0.8134	6.10	0.11	-0.750			
0.1879	12026.27	3.8460	3.8460	-0.8139	6.10	0.11	-0.750			
0.1904	12183.05	3.8430	3.8430	-0.8132	6.11	0.12	-0.750			
0.1928	12339.80	3.8400	3.8399	-0.8107	6.11	0.12	-0.750			
0.1952	12495.47	3.8370	3.8371	-0.8064	6.12	0.13	-0.750			
0.1977	12649.76	3.8340	3.8340	-0.8096	6.13	0.14	-0.750			
0.2001	12803.44	3.8310	3.8310	-0.8171	6.14	0.15	-0.750			
0.2025	12960.96	3.8280	3.8279	-0.8190	6.15	0.16	-0.750			
0.2050	13118.39	3.8250	3.8250	-0.8175	6.16	0.17	-0.750			
0.2075	13277.76	3.8220	3.8220	-0.8244	6.17	0.18	-0.750			
0.2099	13436.35	3.8190	3.8191	-0.8251	6.17	0.18	-0.750			
0.2124	13594.03	3.8160	3.8159	-0.8276	6.18	0.19	-0.750			
0.2149	13751.87	3.8130	3.8130	-0.8232	6.18	0.19	-0.750			
0.2173	13908.29	3.8100	3.8100	-0.8226	6.18	0.19	-0.750			
0.2199	14070.45	3.8070	3.8070	-0.8282	6.19	0.20	-0.750			
0.2223	14229.50	3.8040	3.8038	-0.8246	6.19	0.20	-0.750			
0.2248	14384.81	3.8010	3.8011	-0.8270	6.20	0.21	-0.750			
0.2273	14544.13	3.7980	3.7980	-0.8283	6.21	0.22	-0.750			
0.2297	14703.13	3.7950	3.7949	-0.8255	6.22	0.23	-0.750			
0.2322	14863.32	3.7920	3.7920	-0.8289	6.23	0.24	-0.750			
0.2347	15022.46	3.7890	3.7890	-0.8249	6.23	0.24	-0.750			
0.2372	15180.61	3.7860	3.7860	-0.8267	6.24	0.25	-0.750			
0.2397	15339.15	3.7830	3.7830	-0.8190	6.25	0.26	-0.750			
0.2421	15493.64	3.7800	3.7801	-0.8176	6.26	0.27	-0.750			
0.2446	15651.34	3.7770	3.7771	-0.8264	6.27	0.28	-0.750			
0.2470	15810.45	3.7740	3.7737	-0.8294	6.27	0.28	-0.750			
0.2495	15968.84	3.7710	3.7710	-0.8350	6.28	0.29	-0.750			
0.2520	16131.00	3.7680	3.7681	-0.8389	6.28	0.29	-0.750			
0.2546	16293.41	3.7650	3.7650	-0.8407	6.28	0.29	-0.750			
0.2571	16456.58	3.7620	3.7619	-0.8416	6.29	0.30	-0.750			
0.2596	16615.87	3.7590	3.7590	-0.8334	6.29	0.30	-0.750			
0.2621	16774.91	3.7560	3.7560	-0.8345	6.30	0.31	-0.750			
0.2646	16935.68	3.7530	3.7530	-0.8336	6.31	0.32	-0.750			
0.2671	17094.12	3.7500	3.7500	-0.8323	6.32	0.33	-0.750			
0.2696	17254.86	3.7470	3.7470	-0.8386	6.33	0.34	-0.750			
0.2721	17416.06	3.7440	3.7439	-0.8418	6.33	0.34	-0.750			
0.2747	17577.72	3.7410	3.7410	-0.8461	6.34	0.35	-0.750			
0.2772	17740.71	3.7380	3.7380	-0.8480	6.35	0.36	-0.750			
0.2797	17903.84	3.7350	3.7350	-0.8500	6.35	0.36	-0.750			
0.2823	18067.75	3.7320	3.7320	-0.8545	6.36	0.37	-0.750			
0.2849	18230.93	3.7290	3.7289	-0.8550	6.37	0.38	-0.750			
0.2874	18395.59	3.7260	3.7260	-0.8582	6.38	0.39	-0.750			
0.2900	18561.14	3.7230	3.7230	-0.8623	6.39	0.40	-0.750			
0.2926	18726.65	3.7200	3.7200	-0.8649	6.40	0.41	-0.750			
0.2952	18894.43	3.7170	3.7170	-0.8698	6.41	0.42	-0.750			
0.2978	19060.27	3.7140	3.7139	-0.8752	6.42	0.43	-0.750			
0.3004	19228.56	3.7110	3.7110	-0.8792	6.42	0.43	-0.750			
0.3031	19398.41	3.7080	3.7080	-0.8781	6.43	0.44	-0.750			
0.3057	19565.97	3.7050	3.7050	-0.8850	6.44	0.45	-0.750			
0.3084	19736.05	3.7020	3.7024	-0.8942	6.45	0.46	-0.750			
0.3111	19907.56	3.6990	3.6989	-0.9066	6.45	0.46	-0.750			
0.3138	20082.81	3.6960	3.6959	-0.9140	6.46	0.47	-0.750			
0.3165	20258.78	3.6930	3.6930	-0.9262	6.46	0.47	-0.750			
0.3194	20439.54	3.6900	3.6900	-0.9384	6.47	0.48	-0.750			
0.3222	20622.64	3.6870	3.6869	-0.9434	6.47	0.48	-0.750			
0.3250	20802.19	3.6840	3.6840	-0.9528	6.48	0.49	-0.750			
0.3279	20986.82	3.6810	3.6810	-0.9612	6.48	0.49	-0.750			
0.3308	21172.25	3.6780	3.6779	-0.9659	6.49	0.50	-0.750			
0.3337	21358.60	3.6750	3.6752	-0.9791	6.49	0.50	-0.750			
0.3367	21546.15	3.6720	3.6720	-0.9923	6.50	0.51	-0.750			
0.3397	21739.48	3.6690	3.6689	-1.0012	6.51	0.52	-0.750			
0.3427	21932.33	3.6660	3.6659	-1.0117	6.52	0.53	-0.750			
0.3457	22127.33	3.6630	3.6633	-1.0245	6.53	0.54	-0.750			
0.3488	22325.67	3.6600	3.6598	-1.0354	6.53	0.54	-0.750			
0.3520	22525.67	3.6570	3.6570	-1.0440	6.53	0.54	-0.750			
0.3551	22725.33	3.6540	3.6540	-1.0497	6.53	0.54	-0.750			
0.3583	22929.89	3.6510	3.6511	-1.0622	6.53	0.54	-0.750			
0.3615	23134.62	3.6480	3.6480	-1.0806	6.53	0.54	-0.750			
0.3647	23341.59	3.6450	3.6450	-1.0878	6.54	0.55	-0.750			
0.3680	23551.76	3.6420	3.6419	-1.1009	6.55	0.56	-0.750			
0.3713	23763.92	3.6390	3.6393	-1.1192	6.55	0.56	-0.750			
0.3747	23981.81	3.6360	3.6360	-1.1281	6.56	0.57	-0.750			
0.3781	24198.57	3.6330	3.6330	-1.1393	6.56	0.57	-0.750			
0.3815	24417.74	3.6300	3.6300	-1.1479	6.57	0.58	-0.750			
0.3850	24640.21	3.6270	3.6269	-1.1632	6.57	0.58	-0.750			
0.3885	24863.29	3.6240	3.6240	-1.1754	6.57	0.58	-0.750			
0.3920	25088.47	3.6210	3.6209	-1.1924	6.57	0.58	-0.750			
0.3956	25318.71	3.6180	3.6181	-1.2137	6.57	0.58	-0.750			
0.3993	25557.30	3.6150	3.6149	-1.2341	6.57	0.58	-0.750			
0.4031	25796.54	3.6120	3.6120	-1.2456	6.57	0.58	-0.750			
0.4068	26038.29	3.6090	3.6091	-1.2589	6.57	0.58	-0.750			
0.4106	26279.00	3.6060	3.6060	-1.2746	6.57	0.58	-0.750			
0.4144	26524.14	3.6030	3.6029	-1.2855	6.57	0.58	-0.750			
0.4183	26771.20	3.6000	3.6000	-1.2997	6.57	0.58	-0.750			
0.4222	27019.85	3.5970	3.5970	-1.3154	6.57	0.58	-0.750			
0.4262	27278.24	3.5940	3.5941	-1.3417	6.57	0.58	-0.750			
0.4303	27537.20	3.5910	3.5909	-1.3568	6.57	0.58	-0.750			
0.4344	27800.36	3.5880	3.5880	-1.3793	6.57	0.58	-0.750			
0.4386	28068.46	3.5850	3.5849	-1.3918	6.57	0.58	-0.750			
0.4428	28337.80	3.5820	3.5820	-1.4155	6.57	0.58	-0.750			
0.4470	28611.09	3.5790	3.5791	-1.4256	6.57	0.58	-0.750			
0.4513	28885.54	3.5760	3.5760	-1.4372	6.57	0.58	-0.750			
0.4557	29162.05	3.5730	3.5729	-1.4497	6.57	0.58	-0.750			
0.4600	29438.19	3.5700	3.5699	-1.4584	6.57	0.58	-0.750			
0.4644	29724.39	3.5670	3.5671	-1.4900	6.57	0.58	-0.750			
0.4690	30012.89	3.5640	3.5640	-1.5153	6.57	0.58	-0.750			
0.4735	30305.60	3.5610	3.5611	-1.5252	6.57	0.58	-0.750			
0.4782	30603.95	3.5580	3.5580	-1.5513	6.57	0.58	-0.750			
0.4829	30903.44	3.5550	3.5550	-1.5673	6.57	0.58	-0.750			
0.4876	31204.80	3.5520	3.5519	-1.5778	6.58	0.59	-0.750			
0.4923	31507.77	3.5490	3.5492	-1.5912	6.58	0.59	-0.750			
0.4971	31812.00	3.5460	3.5461	-1.6078	6.59	0.60	-0.750			
0.5019	32121.56	3.5430	3.5428	-1.6284	6.59	0.60	-0.750			
0.5069	32440.12	3.5400	3.5399	-1.6452	6.59	0.60	-0.750			
0.5119	32759.45	3.5370	3.5369	-1.6608	6.59	0.60	-0.750			
0.5169	33080.22	3.5340	3.5340	-1.6895	6.59	0.60	-0.750			
0.5220	33404.88	3.5310	3.5311	-1.6934	6.59	0.60	-0.750			
0.5271	33731.44	3.5280	3.5281	-1.7105	6.59	0.60	-0.750			
0.5323	34064.39	3.5250	3.5251	-1.7215	6.59	0.60	-0.750			
0.5375	34397.07	3.5220	3.5220	-1.7349	6.59	0.60	-0.750			
0.5427	34734.10	3.5190	3.5190	-1.7497	6.59	0.60	-0.750			
0.5479	35068.80	3.5160	3.5160	-1.7617	6.59	0.60	-0.750			
0.5532	35407.99	3.5130	3.5129	-1.7552	6.59	0.60	-0.750			
0.5585	35745.90	3.5100	3.5102	-1.7648	6.59	0.60	-0.750			
0.5638	36084.33	3.5070	3.5070	-1.7547	6.59	0.60	-0.750			
0.5691	36423.80	3.5040	3.5039	-1.7389	6.60	0.61	-0.750			
0.5743	36756.76	3.5010	3.5010	-1.7395	6.60	0.61	-0.750			
0.5796	37092.08	3.4980	3.4979	-1.7413	6.61	0.62	-0.750			
0.5848	37425.73	3.4950	3.4948	-1.7352	6.61	0.62	-0.750			
0.5900	37760.81	3.4920	3.4922	-1.7434	6.61	0.62	-0.750			
0.5952	38093.15	3.4890	3.4892	-1.7297	6.61	0.62	-0.750			
0.6005	38432.54	3.4860	3.4861	-1.7251	6.62	0.63	-0.750			
0.6057	38763.46	3.4830	3.4829	-1.7051	6.63	0.64	-0.750			
0.6108	39088.92	3.4800	3.4801	-1.6865	6.63	0.64	-0.750			
0.6157	39406.50	3.4770	3.4771	-1.6657	6.64	0.65	-0.750			
0.6207	39725.09	3.4740	3.4740	-1.6571	6.65	0.66	-0.750			
0.6257	40041.78	3.4710	3.4710	-1.6237	6.65	0.66	-0.750			
0.6305	40351.39	3.4680	3.4679	-1.6007	6.66	0.67	-0.750			
0.6353	40660.28	3.4650	3.4649	-1.5768	6.66	0.67	-0.750			
0.6400	40960.98	3.4620	3.4622	-1.5508	6.68	0.69	-0.750			
0.6446	41256.06	3.4590	3.4589	-1.5394	6.69	0.70	-0.750			
0.6492	41547.74	3.4560	3.4559	-1.5043	6.70	0.71	-0.750			
0.6536	41833.49	3.4530	3.4530	-1.4779	6.70	0.71	-0.750			
0.6581	42121.03	3.4500	3.4501	-1.4733	6.71	0.72	-0.750			
0.6625	42400.77	3.4470	3.4470	-1.4438	6.72	0.73	-0.750			
0.6669	42679.23	3.4440	3.4439	-1.4217	6.72	0.73	-0.750			
0.6711	42947.88	3.4410	3.4411	-1.3926	6.73	0.74	-0.750			
0.6752	43210.77	3.4380	3.4380	-1.3708	6.74	0.75	-0.750			
0.6793	43476.65	3.4350	3.4350	-1.3360	6.76	0.77	-0.750			
0.6833	43728.76	3.4320	3.4321	-1.2980	6.77	0.78	-0.750			
0.6871	43975.75	3.4290	3.4291	-1.2635	6.78	0.79	-0.750			
0.6908	44214.20	3.4260	3.4259	-1.2264	6.79	0.80	-0.750			
0.6944	44443.20	3.4230	3.4229	-1.1905	6.81	0.82	-0.750			
0.6979	44668.26	3.4200	3.4200	-1.1616	6.82	0.83	-0.750			
0.7014	44888.32	3.4170	3.4170	-1.1311	6.83	0.84	-0.750			
0.7048	45106.04	3.4140	3.4139	-1.1060	6.84	0.85	-0.750			
0.7080	45314.78	3.4110	3.4112	-1.0711	6.85	0.86	-0.750			
0.7112	45517.92	3.4080	3.4079	-1.0437	6.86	0.87	-0.750			
0.7143	45714.96	3.4050	3.4050	-1.0101	6.87	0.88	-0.750			
0.7173	45905.73	3.4020	3.4019	-0.9779	6.89	0.90	-0.750			
0.7202	46091.24	3.3990	3.3990	-0.9516	6.90	0.91	-0.750			
0.7229	46268.53	3.3960	3.3960	-0.9201	6.91	0.92	-0.750			
0.7257	46443.85	3.3930	3.3929	-0.8897	6.92	0.93	-0.750			
0.7283	46610.25	3.3900	3.3900	-0.8612	6.93	0.94	-0.750			
0.7308	46770.71	3.3870	3.3871	-0.8317	6.94	0.95	-0.750			
0.7333	46930.05	3.3840	3.3841	-0.8095	6.95	0.96	-0.750			
0.7357	47083.14	3.3810	3.3809	-0.7817	6.96	0.97	-0.750			
0.7380	47230.25	3.3780	3.3781	-0.7551	6.97	0.98	-0.750			
0.7402	47372.33	3.3750	3.3750	-0.7343	6.98	0.99	-0.750			
0.7423	47508.13	3.3720	3.3720	-0.6613	6.99	1.00	-0.750			
