Ah_balance (normalized)	Ah_balance (mAh)	Voltage - fit (V)	Voltage -  interpolate (V)	dQ/dV (1/V)	Temperature (°C)	Temperature - diff (°C)	Current (C)	R_DC 0ms (mOhm)	R_DC 50ms (mOhm)	R_DC 50 ms PEC (mOhm)
0.1739	11127.64	4.0820	4.0820	0.7135	7.89	1.90	0.750			
0.1761	11269.87	4.0790	4.0788	0.7550	7.89	1.90	0.750			
0.1784	11419.53	4.0760	4.0759	0.7693	7.89	1.90	0.750			
0.1808	11568.14	4.0730	4.0730	0.7677	7.88	1.89	0.750			
0.1831	11715.48	4.0700	4.0702	0.7740	7.88	1.89	0.750			
0.1854	11863.29	4.0670	4.0670	0.7768	7.87	1.88	0.750			
0.1877	12012.53	4.0640	4.0637	0.7783	7.87	1.88	0.750			
0.1900	12162.60	4.0610	4.0611	0.7797	7.87	1.88	0.750			
0.1924	12315.84	4.0580	4.0580	0.7792	7.86	1.87	0.750			
0.1948	12465.20	4.0550	4.0551	0.7830	7.86	1.87	0.750			
0.1971	12613.88	4.0520	4.0520	0.7897	7.86	1.87	0.750			
0.1994	12763.13	4.0490	4.0491	0.7985	7.85	1.86	0.750			
0.2018	12916.33	4.0460	4.0460	0.8049	7.85	1.86	0.750			
0.2043	13074.77	4.0430	4.0430	0.8080	7.84	1.85	0.750			
0.2068	13233.39	4.0400	4.0401	0.8168	7.84	1.85	0.750			
0.2092	13390.37	4.0370	4.0371	0.8183	7.84	1.85	0.750			
0.2117	13546.60	4.0340	4.0340	0.8148	7.83	1.84	0.750			
0.2141	13701.13	4.0310	4.0310	0.8128	7.83	1.84	0.750			
0.2165	13858.87	4.0280	4.0280	0.8144	7.82	1.83	0.750			
0.2190	14016.33	4.0250	4.0250	0.8222	7.81	1.82	0.750			
0.2215	14174.07	4.0220	4.0220	0.8262	7.80	1.81	0.750			
0.2240	14333.20	4.0190	4.0190	0.8250	7.80	1.81	0.750			
0.2264	14491.54	4.0160	4.0159	0.8288	7.79	1.80	0.750			
0.2290	14653.67	4.0130	4.0130	0.8264	7.79	1.80	0.750			
0.2314	14811.30	4.0100	4.0101	0.8303	7.78	1.79	0.750			
0.2339	14970.38	4.0070	4.0069	0.8337	7.78	1.79	0.750			
0.2364	15128.61	4.0040	4.0041	0.8397	7.77	1.78	0.750			
0.2389	15289.69	4.0010	4.0009	0.8444	7.77	1.78	0.750			
0.2415	15453.95	3.9980	3.9981	0.8500	7.76	1.77	0.750			
0.2440	15619.17	3.9950	3.9951	0.8548	7.75	1.76	0.750			
0.2466	15783.92	3.9920	3.9921	0.8675	7.74	1.75	0.750			
0.2492	15950.37	3.9890	3.9890	0.8704	7.74	1.75	0.750			
0.2519	16118.83	3.9860	3.9860	0.8694	7.73	1.74	0.750			
0.2545	16286.73	3.9830	3.9831	0.8682	7.72	1.73	0.750			
0.2571	16455.16	3.9800	3.9801	0.8726	7.72	1.73	0.750			
0.2597	16622.57	3.9770	3.9770	0.8692	7.71	1.72	0.750			
0.2623	16786.55	3.9740	3.9739	0.8722	7.70	1.71	0.750			
0.2649	16951.70	3.9710	3.9710	0.8762	7.70	1.71	0.750			
0.2675	17121.34	3.9680	3.9680	0.8822	7.69	1.70	0.750			
0.2702	17292.37	3.9650	3.9650	0.8931	7.68	1.69	0.750			
0.2729	17464.88	3.9620	3.9621	0.9036	7.68	1.69	0.750			
0.2756	17639.39	3.9590	3.9587	0.9070	7.67	1.68	0.750			
0.2784	17816.64	3.9560	3.9559	0.9095	7.66	1.67	0.750			
0.2811	17988.89	3.9530	3.9531	0.9143	7.65	1.66	0.750			
0.2838	18162.91	3.9500	3.9501	0.9275	7.64	1.65	0.750			
0.2866	18344.49	3.9470	3.9470	0.9336	7.63	1.64	0.750			
0.2894	18523.63	3.9440	3.9438	0.9351	7.62	1.63	0.750			
0.2923	18705.28	3.9410	3.9411	0.9272	7.61	1.62	0.750			
0.2951	18884.29	3.9380	3.9383	0.9358	7.60	1.61	0.750			
0.2979	19062.82	3.9350	3.9349	0.9352	7.60	1.61	0.750			
0.3006	19239.75	3.9320	3.9316	0.9394	7.59	1.60	0.750			
0.3034	19418.26	3.9290	3.9291	0.9359	7.58	1.59	0.750			
0.3063	19600.01	3.9260	3.9261	0.9579	7.57	1.58	0.750			
0.3092	19788.95	3.9230	3.9231	0.9702	7.56	1.57	0.750			
0.3121	19975.54	3.9200	3.9199	0.9714	7.55	1.56	0.750			
0.3150	20162.90	3.9170	3.9171	0.9802	7.54	1.55	0.750			
0.3180	20351.62	3.9140	3.9140	0.9916	7.53	1.54	0.750			
0.3210	20541.68	3.9110	3.9110	1.0055	7.51	1.52	0.750			
0.3240	20737.97	3.9080	3.9081	1.0217	7.50	1.51	0.750			
0.3271	20936.04	3.9050	3.9051	1.0178	7.48	1.49	0.750			
0.3302	21132.12	3.9020	3.9020	1.0350	7.47	1.48	0.750			
0.3333	21331.66	3.8990	3.8991	1.0449	7.46	1.47	0.750			
0.3365	21532.84	3.8960	3.8960	1.0530	7.45	1.46	0.750			
0.3396	21736.30	3.8930	3.8929	1.0555	7.43	1.44	0.750			
0.3428	21938.52	3.8900	3.8901	1.0717	7.42	1.43	0.750			
0.3460	22145.40	3.8870	3.8871	1.0887	7.41	1.42	0.750			
0.3493	22357.98	3.8840	3.8839	1.1011	7.40	1.41	0.750			
0.3527	22569.98	3.8810	3.8811	1.0989	7.38	1.39	0.750			
0.3560	22780.84	3.8780	3.8781	1.1171	7.37	1.38	0.750			
0.3593	22996.68	3.8750	3.8751	1.1312	7.36	1.37	0.750			
0.3627	23215.03	3.8720	3.8717	1.1493	7.34	1.35	0.750			
0.3662	23434.07	3.8690	3.8691	1.1635	7.33	1.34	0.750			
0.3697	23660.08	3.8660	3.8661	1.1829	7.31	1.32	0.750			
0.3733	23893.32	3.8630	3.8631	1.2097	7.30	1.31	0.750			
0.3770	24125.76	3.8600	3.8601	1.2119	7.28	1.29	0.750			
0.3806	24359.64	3.8570	3.8570	1.2305	7.27	1.28	0.750			
0.3843	24596.62	3.8540	3.8541	1.2530	7.25	1.26	0.750			
0.3881	24839.91	3.8510	3.8508	1.2610	7.23	1.24	0.750			
0.3920	25085.67	3.8480	3.8480	1.2657	7.22	1.23	0.750			
0.3957	25325.21	3.8450	3.8452	1.3052	7.20	1.21	0.750			
0.3996	25577.23	3.8420	3.8420	1.3267	7.18	1.19	0.750			
0.4037	25834.15	3.8390	3.8388	1.3757	7.17	1.18	0.750			
0.4078	26099.25	3.8360	3.8363	1.4065	7.15	1.16	0.750	0.384	0.874	
0.4121	26376.58	3.8330	3.8330	1.4279	7.13	1.14	0.750			
0.4166	26663.74	3.8300	3.8301	1.4789	7.11	1.12	0.750			
0.4210	26945.58	3.8270	3.8270	1.4822	7.09	1.10	0.750			
0.4254	27226.09	3.8240	3.8238	1.4999	7.07	1.08	0.750			
0.4298	27510.03	3.8210	3.8212	1.5594	7.05	1.06	0.750			
0.4346	27816.57	3.8180	3.8180	1.6080	7.03	1.04	0.750			
0.4396	28131.82	3.8150	3.8146	1.6701	7.00	1.01	0.750			
0.4447	28462.56	3.8120	3.8124	1.6924	6.98	0.99	0.750			
0.4500	28797.92	3.8090	3.8089	1.7229	6.95	0.96	0.750			
0.4551	29128.61	3.8060	3.8060	1.7057	6.93	0.94	0.750			
0.4600	29438.73	3.8030	3.8031	1.7012	6.91	0.92	0.750			
0.4652	29770.10	3.8000	3.7999	1.7435	6.88	0.89	0.750			
0.4704	30106.56	3.7970	3.7969	1.7714	6.84	0.85	0.750			
0.4759	30457.70	3.7940	3.7936	1.7666	6.81	0.82	0.750			
0.4812	30795.85	3.7910	3.7912	1.7772	6.79	0.80	0.750			
0.4866	31142.23	3.7880	3.7880	1.7930	6.77	0.78	0.750			
0.4920	31485.03	3.7850	3.7847	1.8338	6.75	0.76	0.750			
0.4974	31833.42	3.7820	3.7820	1.8660	6.72	0.73	0.750			
0.5032	32205.30	3.7790	3.7790	1.9184	6.70	0.71	0.750			
0.5089	32566.95	3.7760	3.7761	1.8967	6.67	0.68	0.750			
0.5147	32940.97	3.7730	3.7729	1.9265	6.64	0.65	0.750			
0.5204	33304.18	3.7700	3.7701	1.9608	6.62	0.63	0.750			
0.5263	33683.39	3.7670	3.7670	1.9631	6.59	0.60	0.750			
0.5323	34067.68	3.7640	3.7640	1.9854	6.56	0.57	0.750			
0.5382	34447.28	3.7610	3.7608	1.9995	6.53	0.54	0.750			
0.5443	34835.67	3.7580	3.7579	2.0213	6.50	0.51	0.750			
0.5503	35218.61	3.7550	3.7549	2.0806	6.47	0.48	0.750			
0.5567	35628.57	3.7520	3.7522	2.1294	6.44	0.45	0.750			
0.5632	36046.74	3.7490	3.7490	2.1779	6.41	0.42	0.750			
0.5698	36469.92	3.7460	3.7459	2.2207	6.39	0.40	0.750			
0.5766	36904.26	3.7430	3.7430	2.2635	6.37	0.38	0.750			
0.5833	37332.72	3.7400	3.7401	2.3062	6.33	0.34	0.750			
0.5904	37786.19	3.7370	3.7369	2.3844	6.30	0.31	0.750			
0.5977	38252.51	3.7340	3.7339	2.4591	6.27	0.28	0.750			
0.6053	38736.25	3.7310	3.7310	2.4663	6.24	0.25	0.750			
0.6129	39223.58	3.7280	3.7280	2.4547	6.21	0.22	0.750			
0.6200	39682.60	3.7250	3.7250	2.4319	6.18	0.19	0.750			
0.6273	40144.16	3.7220	3.7223	2.4458	6.15	0.16	0.750			
0.6346	40614.04	3.7190	3.7190	2.3028	6.12	0.13	0.750			
0.6413	41041.96	3.7160	3.7164	2.1674	6.10	0.11	0.750			
0.6479	41462.61	3.7130	3.7128	1.9399	6.09	0.10	0.750			
0.6533	41810.48	3.7100	3.7099	1.7351	6.07	0.08	0.750			
0.6581	42116.17	3.7070	3.7072	1.5681	6.06	0.07	0.750			
0.6625	42400.80	3.7040	3.7036	1.3968	6.04	0.05	0.750			
0.6662	42638.68	3.7010	3.7011	1.2471	6.04	0.05	0.750			
0.6696	42853.69	3.6980	3.6981	1.1353	6.03	0.04	0.750			
0.6729	43065.93	3.6950	3.6950	1.0729	6.03	0.04	0.750			
0.6759	43258.35	3.6920	3.6919	1.0019	6.03	0.04	0.750			
0.6789	43446.66	3.6890	3.6890	0.9633	6.02	0.03	0.750			
0.6817	43625.96	3.6860	3.6860	0.9309	6.02	0.03	0.750			
0.6844	43801.75	3.6830	3.6830	0.9005	6.01	0.02	0.750			
0.6871	43971.87	3.6800	3.6800	0.8711	6.00	0.01	0.750			
0.6896	44137.21	3.6770	3.6771	0.8410	6.00	0.01	0.750			
0.6922	44297.89	3.6740	3.6740	0.8121	6.00	0.01	0.750			
0.6945	44450.03	3.6710	3.6710	0.7800	6.00	0.01	0.750			
0.6968	44596.27	3.6680	3.6680	0.7492	5.99	0.00	0.750			
0.6990	44736.57	3.6650	3.6650	0.7124	5.99	0.00	0.750			
0.7011	44871.34	3.6620	3.6619	0.6813	5.99	0.00	0.750			
0.7031	44998.37	3.6590	3.6591	0.6468	5.99	0.00	0.750			
0.7050	45120.38	3.6560	3.6560	0.6141	5.99	0.00	0.750			
0.7068	45233.68	3.6530	3.6530	0.5793	5.99	0.00	0.750			
0.7085	45343.07	3.6500	3.6499	0.5422	5.99	0.00	0.750			
0.7100	45442.18	3.6470	3.6471	0.5095	5.99	0.00	0.750			
0.7115	45537.39	3.6440	3.6439	0.4793	5.99	0.00	0.750			
0.7129	45626.04	3.6410	3.6410	0.4460	5.99	0.00	0.750			
0.7142	45708.91	3.6380	3.6381	0.4111	5.99	0.00	0.750			
0.7154	45785.13	3.6350	3.6351	0.3769	5.99	0.00	0.750			
0.7165	45854.26	3.6320	3.6320	0.3407	5.99	0.00	0.750			
0.7174	45915.78	3.6290	3.6289	0.3029	5.99	0.00	0.750			
0.7183	45972.25	3.6260	3.6259	0.2647	5.99	0.00	0.750			
0.7191	46019.28	3.6230	3.6229	0.2248	5.99	0.00	0.750			
0.7197	46059.90	3.6200	3.6200	0.1865	5.99	0.00	0.750			
0.7202	46093.07	3.6170	3.6173	0.1452	5.99	0.00	0.750			
0.7206	46118.15	3.6140	3.6142	0.1004	5.99	0.00	0.750			
0.7208	46134.36	3.6110	3.6111	0.0493	5.99	0.00	0.750			
0.7209	46138.84	3.6080	3.6092	-0.0026	5.99	0.00	0.750			
