Ah_balance (normalized)	Ah_balance (mAh)	Voltage - fit (V)	Voltage -  interpolate (V)	dQ/dV (1/V)	Temperature (°C)	Temperature - diff (°C)	Current (C)	R_DC 0ms (mOhm)	R_DC 50ms (mOhm)	R_DC 50 ms PEC (mOhm)
0.1806	11556.88	4.0800	4.0798	1.0411	7.29	1.31	0.750			
0.1836	11747.23	4.0770	4.0773	0.9527	7.28	1.30	0.750			
0.1862	11919.30	4.0740	4.0741	0.8830	7.27	1.29	0.750			
0.1887	12077.90	4.0710	4.0711	0.8454	7.27	1.29	0.750			
0.1912	12233.98	4.0680	4.0679	0.8116	7.26	1.28	0.750			
0.1934	12380.10	4.0650	4.0648	0.7936	7.25	1.27	0.750			
0.1958	12533.38	4.0620	4.0621	0.7961	7.25	1.27	0.750			
0.1982	12686.87	4.0590	4.0591	0.7965	7.24	1.26	0.750			
0.2006	12840.71	4.0560	4.0560	0.8017	7.24	1.26	0.750			
0.2030	12993.34	4.0530	4.0531	0.8043	7.23	1.25	0.750			
0.2054	13147.83	4.0500	4.0499	0.8108	7.23	1.25	0.750			
0.2079	13305.85	4.0470	4.0470	0.8142	7.22	1.24	0.750			
0.2104	13463.78	4.0440	4.0441	0.8099	7.22	1.24	0.750			
0.2128	13620.83	4.0410	4.0410	0.8120	7.21	1.23	0.750			
0.2152	13774.74	4.0380	4.0381	0.8142	7.20	1.22	0.750			
0.2176	13928.32	4.0350	4.0349	0.8124	7.19	1.21	0.750			
0.2201	14084.18	4.0320	4.0320	0.8168	7.19	1.21	0.750			
0.2225	14241.92	4.0290	4.0291	0.8185	7.18	1.20	0.750			
0.2250	14400.62	4.0260	4.0260	0.8244	7.18	1.20	0.750			
0.2275	14560.97	4.0230	4.0230	0.8311	7.18	1.20	0.750			
0.2300	14718.61	4.0200	4.0200	0.8316	7.17	1.19	0.750			
0.2325	14878.89	4.0170	4.0170	0.8322	7.17	1.19	0.750			
0.2350	15039.48	4.0140	4.0140	0.8340	7.16	1.18	0.750			
0.2375	15199.83	4.0110	4.0111	0.8355	7.16	1.18	0.750			
0.2400	15360.66	4.0080	4.0081	0.8420	7.16	1.18	0.750			
0.2425	15521.79	4.0050	4.0049	0.8421	7.15	1.17	0.750			
0.2450	15683.10	4.0020	4.0020	0.8457	7.15	1.17	0.750			
0.2476	15845.99	3.9990	3.9991	0.8460	7.14	1.16	0.750			
0.2502	16009.75	3.9960	3.9960	0.8516	7.14	1.16	0.750			
0.2527	16173.93	3.9930	3.9930	0.8572	7.14	1.16	0.750			
0.2553	16337.86	3.9900	3.9899	0.8593	7.13	1.15	0.750			
0.2579	16503.96	3.9870	3.9871	0.8594	7.13	1.15	0.750			
0.2605	16669.10	3.9840	3.9840	0.8663	7.12	1.14	0.750			
0.2630	16835.07	3.9810	3.9812	0.8718	7.11	1.13	0.750			
0.2657	17003.08	3.9780	3.9779	0.8787	7.11	1.13	0.750			
0.2683	17171.26	3.9750	3.9748	0.8806	7.10	1.12	0.750			
0.2710	17342.92	3.9720	3.9721	0.8776	7.10	1.12	0.750			
0.2736	17511.50	3.9690	3.9690	0.8836	7.10	1.12	0.750			
0.2763	17682.63	3.9660	3.9661	0.8940	7.09	1.11	0.750			
0.2789	17852.59	3.9630	3.9630	0.8973	7.09	1.11	0.750			
0.2816	18024.10	3.9600	3.9598	0.9006	7.09	1.11	0.750			
0.2844	18199.37	3.9570	3.9570	0.9024	7.08	1.10	0.750			
0.2871	18373.79	3.9540	3.9541	0.9090	7.07	1.09	0.750			
0.2898	18547.72	3.9510	3.9511	0.9170	7.06	1.08	0.750			
0.2925	18722.76	3.9480	3.9480	0.9156	7.05	1.07	0.750			
0.2953	18900.00	3.9450	3.9449	0.9178	7.05	1.07	0.750			
0.2981	19075.92	3.9420	3.9421	0.9256	7.04	1.06	0.750			
0.3009	19255.30	3.9390	3.9391	0.9333	7.04	1.06	0.750			
0.3037	19436.23	3.9360	3.9360	0.9445	7.03	1.05	0.750			
0.3065	19615.62	3.9330	3.9330	0.9455	7.03	1.05	0.750			
0.3093	19798.24	3.9300	3.9300	0.9506	7.02	1.04	0.750			
0.3122	19982.01	3.9270	3.9270	0.9612	7.01	1.03	0.750			
0.3151	20166.79	3.9240	3.9241	0.9704	7.00	1.02	0.750			
0.3180	20353.10	3.9210	3.9209	0.9735	6.99	1.01	0.750			
0.3210	20542.72	3.9180	3.9179	0.9771	6.98	1.00	0.750			
0.3239	20729.01	3.9150	3.9151	0.9872	6.97	0.99	0.750			
0.3269	20919.66	3.9120	3.9120	0.9989	6.96	0.98	0.750			
0.3299	21111.46	3.9090	3.9089	1.0068	6.95	0.97	0.750			
0.3329	21307.89	3.9060	3.9060	1.0132	6.95	0.97	0.750			
0.3360	21501.46	3.9030	3.9031	1.0280	6.94	0.96	0.750			
0.3391	21701.58	3.9000	3.9001	1.0417	6.94	0.96	0.750			
0.3422	21903.39	3.8970	3.8969	1.0561	6.93	0.95	0.750			
0.3454	22104.66	3.8940	3.8941	1.0630	6.93	0.95	0.750			
0.3486	22309.17	3.8910	3.8911	1.0794	6.92	0.94	0.750			
0.3519	22518.96	3.8880	3.8880	1.0949	6.91	0.93	0.750			
0.3553	22737.83	3.8850	3.8848	1.0934	6.90	0.92	0.750			
0.3586	22949.37	3.8820	3.8820	1.0776	6.89	0.91	0.750			
0.3617	23151.04	3.8790	3.8792	1.0802	6.89	0.91	0.750			
0.3649	23353.35	3.8760	3.8763	1.0806	6.88	0.90	0.750			
0.3681	23558.31	3.8730	3.8726	1.1001	6.87	0.89	0.750			
0.3713	23765.06	3.8700	3.8701	1.1156	6.86	0.88	0.750			
0.3747	23983.41	3.8670	3.8671	1.1513	6.85	0.87	0.750			
0.3784	24218.57	3.8640	3.8640	1.1965	6.84	0.86	0.750			
0.3820	24448.70	3.8610	3.8611	1.2047	6.83	0.85	0.750			
0.3856	24680.91	3.8580	3.8580	1.2211	6.82	0.84	0.750			
0.3893	24917.28	3.8550	3.8551	1.2410	6.81	0.83	0.750			
0.3931	25160.02	3.8520	3.8518	1.2432	6.80	0.82	0.750			
0.3968	25397.29	3.8490	3.8490	1.2718	6.79	0.81	0.750			
0.4006	25639.06	3.8460	3.8462	1.3059	6.77	0.79	0.750			
0.4045	25889.29	3.8430	3.8429	1.3491	6.76	0.78	0.750			
0.4086	26151.59	3.8400	3.8401	1.3992	6.74	0.76	0.750			
0.4129	26426.35	3.8370	3.8370	1.4335	6.73	0.75	0.750			
0.4173	26710.31	3.8340	3.8339	1.4502	6.72	0.74	0.750	0.391	0.928	
0.4219	26998.78	3.8310	3.8311	1.4758	6.71	0.73	0.750			
0.4263	27281.19	3.8280	3.8281	1.4957	6.69	0.71	0.750			
0.4308	27570.07	3.8250	3.8246	1.4855	6.68	0.70	0.750			
0.4352	27853.68	3.8220	3.8220	1.5056	6.67	0.69	0.750			
0.4398	28144.62	3.8190	3.8192	1.5461	6.66	0.68	0.750			
0.4444	28444.71	3.8160	3.8157	1.5927	6.65	0.67	0.750			
0.4492	28751.79	3.8130	3.8130	1.6246	6.63	0.65	0.750			
0.4542	29070.65	3.8100	3.8101	1.6528	6.61	0.63	0.750			
0.4594	29399.88	3.8070	3.8071	1.6795	6.59	0.61	0.750			
0.4644	29723.19	3.8040	3.8040	1.7173	6.57	0.59	0.750			
0.4695	30046.60	3.8010	3.8011	1.7333	6.55	0.57	0.750			
0.4748	30386.09	3.7980	3.7976	1.7666	6.53	0.55	0.750			
0.4801	30725.49	3.7950	3.7950	1.8165	6.51	0.53	0.750			
0.4856	31079.41	3.7920	3.7924	1.8706	6.49	0.51	0.750			
0.4915	31454.34	3.7890	3.7888	1.9064	6.46	0.48	0.750			
0.4972	31822.04	3.7860	3.7862	1.9334	6.44	0.46	0.750			
0.5029	32185.08	3.7830	3.7834	2.0169	6.43	0.45	0.750			
0.5091	32580.05	3.7800	3.7802	2.0378	6.41	0.43	0.750			
0.5153	32981.70	3.7770	3.7772	2.0374	6.38	0.40	0.750			
0.5214	33372.38	3.7740	3.7739	2.0443	6.36	0.38	0.750			
0.5275	33760.31	3.7710	3.7708	2.0674	6.34	0.36	0.750			
0.5338	34163.78	3.7680	3.7681	2.1087	6.32	0.34	0.750			
0.5399	34556.37	3.7650	3.7653	2.0729	6.30	0.32	0.750			
0.5462	34958.12	3.7620	3.7618	2.1254	6.28	0.30	0.750			
0.5527	35371.96	3.7590	3.7590	2.1244	6.25	0.27	0.750			
0.5593	35792.02	3.7560	3.7560	2.2100	6.22	0.24	0.750			
0.5659	36214.93	3.7530	3.7526	2.2306	6.21	0.23	0.750			
0.5727	36650.11	3.7500	3.7503	2.2448	6.18	0.20	0.750			
0.5796	37095.54	3.7470	3.7469	2.3219	6.16	0.18	0.750			
0.5863	37520.02	3.7440	3.7440	2.2852	6.13	0.15	0.750			
0.5933	37972.77	3.7410	3.7408	2.3747	6.11	0.13	0.750			
0.6005	38434.39	3.7380	3.7379	2.4470	6.09	0.11	0.750			
0.6081	38919.25	3.7350	3.7350	2.5931	6.07	0.09	0.750			
0.6161	39427.23	3.7320	3.7321	2.6239	6.06	0.08	0.750			
0.6240	39936.91	3.7290	3.7290	2.6837	6.03	0.05	0.750			
0.6320	40445.57	3.7260	3.7258	2.7495	6.01	0.03	0.750			
0.6405	40991.01	3.7230	3.7229	2.8302	5.98	-0.00	0.750			
0.6492	41546.60	3.7200	3.7200	2.7847	5.96	-0.02	0.750			
0.6572	42063.44	3.7170	3.7170	2.6070	5.95	-0.03	0.750			
0.6648	42547.00	3.7140	3.7143	2.3952	5.94	-0.04	0.750			
0.6718	42996.30	3.7110	3.7112	2.2403	5.94	-0.04	0.750			
0.6782	43404.93	3.7080	3.7083	1.9788	5.93	-0.05	0.750			
0.6837	43755.56	3.7050	3.7053	1.7427	5.93	-0.05	0.750			
0.6882	44046.34	3.7020	3.7022	1.5100	5.93	-0.05	0.750			
0.6925	44321.15	3.6990	3.6987	1.3550	5.93	-0.05	0.750			
0.6962	44557.70	3.6960	3.6959	1.1908	5.93	-0.05	0.750			
0.6995	44766.35	3.6930	3.6930	1.0795	5.93	-0.05	0.750			
0.7025	44960.43	3.6900	3.6905	1.0077	5.93	-0.05	0.750			
0.7054	45146.03	3.6870	3.6865	0.9497	5.93	-0.05	0.750			
0.7080	45313.80	3.6840	3.6840	0.8869	5.93	-0.05	0.750			
0.7105	45474.44	3.6810	3.6810	0.8380	5.94	-0.04	0.750			
0.7130	45630.54	3.6780	3.6782	0.8045	5.94	-0.04	0.750			
0.7155	45789.93	3.6750	3.6750	0.7785	5.95	-0.03	0.750			
0.7177	45934.14	3.6720	3.6718	0.7342	5.95	-0.03	0.750			
0.7199	46070.57	3.6690	3.6690	0.6928	5.95	-0.03	0.750			
0.7219	46200.40	3.6660	3.6661	0.6507	5.96	-0.02	0.750			
0.7238	46322.14	3.6630	3.6630	0.6082	5.96	-0.02	0.750			
0.7256	46435.66	3.6600	3.6599	0.5638	5.97	-0.01	0.750			
0.7272	46537.81	3.6570	3.6570	0.5180	5.97	-0.01	0.750			
0.7286	46632.58	3.6540	3.6540	0.4761	5.97	-0.01	0.750			
0.7300	46719.74	3.6510	3.6510	0.4340	5.98	-0.00	0.750			
0.7312	46798.41	3.6480	3.6480	0.3931	5.98	0.00	0.750			
0.7323	46870.14	3.6450	3.6451	0.3556	5.98	0.00	0.750			
0.7334	46934.47	3.6420	3.6420	0.3197	5.99	0.01	0.750			
0.7343	46992.37	3.6390	3.6389	0.2840	5.99	0.01	0.750			
0.7351	47043.99	3.6360	3.6360	0.2469	5.99	0.01	0.750			
0.7357	47087.80	3.6330	3.6330	0.2104	5.99	0.01	0.750			
0.7363	47125.18	3.6300	3.6300	0.1743	5.99	0.01	0.750			
0.7368	47155.67	3.6270	3.6270	0.1370	5.99	0.01	0.750			
0.7372	47178.87	3.6240	3.6242	0.0985	6.00	0.02	0.750			
0.7374	47193.93	3.6210	3.6212	0.0584	6.00	0.02	0.750			
0.7375	47200.91	3.6150	3.6111	-0.0201	6.00	0.02	0.750			
0.7375	47200.99	3.6180	3.6097	0.0192	6.00	0.02	0.750			
