Ah_balance (normalized)	Ah_balance (mAh)	Voltage - fit (V)	Voltage -  interpolate (V)	dQ/dV (1/V)	Temperature (°C)	Temperature - diff (°C)	Current (C)	R_DC 0ms (mOhm)	R_DC 50ms (mOhm)	R_DC 50 ms PEC (mOhm)
0.1802	11533.35	4.0820	4.0820	0.7559	7.18	1.21	0.750			
0.1825	11680.34	4.0790	4.0790	0.7707	7.18	1.21	0.750			
0.1848	11828.48	4.0760	4.0761	0.7750	7.18	1.21	0.750			
0.1872	11977.97	4.0730	4.0731	0.7795	7.18	1.21	0.750			
0.1895	12128.96	4.0700	4.0699	0.7807	7.18	1.21	0.750			
0.1919	12278.90	4.0670	4.0670	0.7818	7.17	1.20	0.750			
0.1942	12427.85	4.0640	4.0641	0.7834	7.17	1.20	0.750			
0.1965	12577.62	4.0610	4.0607	0.7861	7.17	1.20	0.750			
0.1989	12729.69	4.0580	4.0580	0.7909	7.17	1.20	0.750			
0.2013	12883.79	4.0550	4.0549	0.7836	7.16	1.19	0.750			
0.2036	13033.55	4.0520	4.0521	0.7938	7.15	1.18	0.750			
0.2060	13185.97	4.0490	4.0491	0.8003	7.15	1.18	0.750			
0.2084	13338.75	4.0460	4.0460	0.8024	7.14	1.17	0.750			
0.2108	13493.51	4.0430	4.0431	0.8055	7.14	1.17	0.750			
0.2133	13649.11	4.0400	4.0401	0.8070	7.14	1.17	0.750			
0.2157	13804.92	4.0370	4.0371	0.8125	7.13	1.16	0.750			
0.2182	13963.58	4.0340	4.0339	0.8195	7.13	1.16	0.750			
0.2206	14117.31	4.0310	4.0310	0.8135	7.13	1.16	0.750			
0.2230	14274.85	4.0280	4.0281	0.8176	7.13	1.16	0.750			
0.2255	14434.12	4.0250	4.0250	0.8161	7.12	1.15	0.750			
0.2280	14589.87	4.0220	4.0220	0.8211	7.12	1.15	0.750			
0.2304	14746.56	4.0190	4.0190	0.8257	7.12	1.15	0.750			
0.2329	14903.65	4.0160	4.0160	0.8324	7.11	1.14	0.750			
0.2354	15064.66	4.0130	4.0130	0.8340	7.11	1.14	0.750			
0.2379	15228.67	4.0100	4.0100	0.8281	7.10	1.13	0.750			
0.2405	15388.92	4.0070	4.0071	0.8347	7.10	1.13	0.750			
0.2429	15547.42	4.0040	4.0041	0.8405	7.10	1.13	0.750			
0.2454	15707.28	4.0010	4.0011	0.8395	7.09	1.12	0.750			
0.2479	15866.89	3.9980	3.9981	0.8452	7.09	1.12	0.750			
0.2505	16031.26	3.9950	3.9951	0.8471	7.08	1.11	0.750			
0.2531	16197.36	3.9920	3.9920	0.8610	7.08	1.11	0.750			
0.2557	16363.06	3.9890	3.9890	0.8640	7.08	1.11	0.750			
0.2583	16528.66	3.9860	3.9861	0.8626	7.07	1.10	0.750			
0.2609	16694.42	3.9830	3.9831	0.8659	7.07	1.10	0.750			
0.2635	16861.90	3.9800	3.9800	0.8688	7.06	1.09	0.750			
0.2661	17028.22	3.9770	3.9770	0.8713	7.05	1.08	0.750			
0.2687	17194.81	3.9740	3.9741	0.8743	7.04	1.07	0.750			
0.2713	17364.16	3.9710	3.9709	0.8796	7.03	1.06	0.750			
0.2740	17534.78	3.9680	3.9680	0.8831	7.03	1.06	0.750			
0.2766	17705.07	3.9650	3.9650	0.8797	7.03	1.06	0.750			
0.2793	17873.05	3.9620	3.9622	0.8862	7.03	1.06	0.750			
0.2819	18042.76	3.9590	3.9590	0.8923	7.03	1.06	0.750			
0.2846	18212.23	3.9560	3.9556	0.8984	7.03	1.06	0.750			
0.2873	18385.60	3.9530	3.9531	0.8981	7.03	1.06	0.750			
0.2900	18559.12	3.9500	3.9500	0.9102	7.02	1.05	0.750			
0.2928	18738.01	3.9470	3.9470	0.9189	7.02	1.05	0.750			
0.2955	18912.26	3.9440	3.9441	0.9182	7.01	1.04	0.750			
0.2983	19090.04	3.9410	3.9410	0.9235	7.01	1.04	0.750			
0.3011	19267.60	3.9380	3.9380	0.9281	7.00	1.03	0.750			
0.3039	19447.04	3.9350	3.9350	0.9366	7.00	1.03	0.750			
0.3067	19630.29	3.9320	3.9320	0.9432	6.99	1.02	0.750			
0.3095	19807.05	3.9290	3.9290	0.9515	6.99	1.02	0.750			
0.3124	19995.06	3.9260	3.9261	0.9465	6.99	1.02	0.750			
0.3152	20174.37	3.9230	3.9229	0.9556	6.98	1.01	0.750			
0.3181	20359.43	3.9200	3.9201	0.9642	6.98	1.01	0.750			
0.3210	20543.69	3.9170	3.9172	0.9715	6.97	1.00	0.750			
0.3239	20731.98	3.9140	3.9141	0.9713	6.97	1.00	0.750			
0.3268	20914.70	3.9110	3.9111	1.0006	6.97	1.00	0.750			
0.3298	21104.36	3.9080	3.9081	1.0351	6.96	0.99	0.750			
0.3330	21308.91	3.9050	3.9049	1.0558	6.96	0.99	0.750			
0.3362	21517.19	3.9020	3.9019	1.0683	6.96	0.99	0.750			
0.3395	21730.60	3.8990	3.8993	1.0906	6.95	0.98	0.750			
0.3429	21943.03	3.8960	3.8961	1.0946	6.94	0.97	0.750			
0.3462	22156.88	3.8930	3.8927	1.0959	6.93	0.96	0.750			
0.3494	22360.20	3.8900	3.8900	1.0808	6.92	0.95	0.750			
0.3525	22561.25	3.8870	3.8871	1.0897	6.91	0.94	0.750			
0.3558	22773.42	3.8840	3.8840	1.1064	6.90	0.93	0.750			
0.3592	22990.47	3.8810	3.8807	1.1161	6.89	0.92	0.750			
0.3625	23202.39	3.8780	3.8781	1.1270	6.88	0.91	0.750			
0.3660	23420.83	3.8750	3.8751	1.1410	6.88	0.91	0.750			
0.3694	23642.43	3.8720	3.8720	1.1555	6.87	0.90	0.750			
0.3729	23864.33	3.8690	3.8691	1.1556	6.87	0.90	0.750			
0.3763	24086.26	3.8660	3.8661	1.1729	6.86	0.89	0.750			
0.3799	24313.39	3.8630	3.8630	1.1914	6.84	0.87	0.750			
0.3835	24545.82	3.8600	3.8599	1.2006	6.83	0.86	0.750			
0.3871	24775.04	3.8570	3.8570	1.2172	6.83	0.86	0.750			
0.3908	25010.51	3.8540	3.8541	1.2410	6.82	0.85	0.750			
0.3945	25251.08	3.8510	3.8512	1.2636	6.81	0.84	0.750			
0.3984	25494.85	3.8480	3.8480	1.2845	6.81	0.84	0.750			
0.4022	25740.45	3.8450	3.8451	1.3231	6.79	0.82	0.750			
0.4062	25999.56	3.8420	3.8420	1.3484	6.78	0.81	0.750			
0.4103	26261.37	3.8390	3.8389	1.3899	6.77	0.80	0.750			
0.4146	26532.27	3.8360	3.8362	1.4185	6.75	0.78	0.750	0.400	0.939	
0.4190	26813.94	3.8330	3.8331	1.4302	6.73	0.76	0.750			
0.4233	27091.04	3.8300	3.8302	1.4557	6.72	0.75	0.750			
0.4276	27366.34	3.8270	3.8271	1.4648	6.70	0.73	0.750			
0.4320	27646.08	3.8240	3.8240	1.4876	6.69	0.72	0.750			
0.4365	27934.86	3.8210	3.8210	1.5339	6.67	0.70	0.750			
0.4411	28229.70	3.8180	3.8179	1.5585	6.66	0.69	0.750			
0.4459	28536.18	3.8150	3.8150	1.5951	6.65	0.68	0.750			
0.4507	28845.91	3.8120	3.8122	1.6161	6.64	0.67	0.750			
0.4555	29154.71	3.8090	3.8090	1.6670	6.62	0.65	0.750			
0.4606	29477.97	3.8060	3.8060	1.6731	6.61	0.64	0.750			
0.4657	29802.93	3.8030	3.8030	1.7079	6.59	0.62	0.750			
0.4709	30135.26	3.8000	3.7999	1.7613	6.57	0.60	0.750			
0.4762	30478.26	3.7970	3.7969	1.7792	6.56	0.59	0.750			
0.4816	30823.70	3.7940	3.7939	1.8302	6.54	0.57	0.750			
0.4873	31185.23	3.7910	3.7911	1.8630	6.52	0.55	0.750			
0.4928	31537.91	3.7880	3.7880	1.8579	6.50	0.53	0.750			
0.4984	31897.36	3.7850	3.7850	1.9073	6.48	0.51	0.750			
0.5040	32257.45	3.7820	3.7821	2.0284	6.47	0.50	0.750			
0.5101	32647.75	3.7790	3.7788	1.9982	6.45	0.48	0.750			
0.5163	33042.05	3.7760	3.7766	2.0012	6.43	0.46	0.750			
0.5222	33422.09	3.7730	3.7729	2.0026	6.42	0.45	0.750			
0.5281	33797.39	3.7700	3.7697	2.0095	6.40	0.43	0.750			
0.5344	34201.56	3.7670	3.7668	2.0893	6.38	0.41	0.750			
0.5406	34597.19	3.7640	3.7642	2.0896	6.35	0.38	0.750			
0.5470	35005.62	3.7610	3.7609	2.1510	6.33	0.36	0.750			
0.5535	35424.38	3.7580	3.7580	2.1565	6.31	0.34	0.750			
0.5600	35841.50	3.7550	3.7552	2.2351	6.29	0.32	0.750			
0.5668	36274.19	3.7520	3.7518	2.2071	6.27	0.30	0.750			
0.5734	36698.23	3.7490	3.7492	2.2206	6.24	0.27	0.750			
0.5801	37125.50	3.7460	3.7459	2.2987	6.21	0.24	0.750			
0.5869	37561.61	3.7430	3.7431	2.3730	6.18	0.21	0.750			
0.5943	38036.92	3.7400	3.7399	2.5241	6.16	0.19	0.750			
0.6021	38533.67	3.7370	3.7370	2.5548	6.13	0.16	0.750			
0.6097	39023.14	3.7340	3.7346	2.5892	6.11	0.14	0.750			
0.6175	39519.80	3.7310	3.7310	2.6167	6.08	0.11	0.750			
0.6254	40028.04	3.7280	3.7281	2.6589	6.06	0.09	0.750			
0.6337	40557.11	3.7250	3.7249	2.6953	6.05	0.08	0.750			
0.6416	41065.26	3.7220	3.7220	2.6526	6.03	0.06	0.750			
0.6496	41575.50	3.7190	3.7189	2.5545	6.01	0.04	0.750			
0.6571	42057.38	3.7160	3.7160	2.3689	5.99	0.02	0.750			
0.6640	42496.65	3.7130	3.7130	2.2077	5.98	0.01	0.750			
0.6703	42901.12	3.7100	3.7098	2.0193	5.97	0.00	0.750			
0.6762	43275.91	3.7070	3.7067	1.8109	5.97	0.00	0.750			
0.6812	43597.53	3.7040	3.7042	1.6133	5.97	0.00	0.750			
0.6856	43880.49	3.7010	3.7013	1.3898	5.97	-0.00	0.750			
0.6894	44118.71	3.6980	3.6980	1.2283	5.96	-0.01	0.750			
0.6927	44331.08	3.6950	3.6951	1.0943	5.96	-0.01	0.750			
0.6957	44525.59	3.6920	3.6919	1.0162	5.95	-0.02	0.750			
0.6986	44709.06	3.6890	3.6890	0.9464	5.95	-0.02	0.750			
0.7013	44882.22	3.6860	3.6860	0.8929	5.95	-0.02	0.750			
0.7039	45048.60	3.6830	3.6830	0.8517	5.95	-0.02	0.750			
0.7064	45209.71	3.6800	3.6801	0.8084	5.95	-0.02	0.750			
0.7088	45362.00	3.6770	3.6769	0.7688	5.95	-0.02	0.750			
0.7110	45505.45	3.6740	3.6740	0.7296	5.95	-0.02	0.750			
0.7132	45642.83	3.6710	3.6710	0.6878	5.96	-0.01	0.750			
0.7152	45771.99	3.6680	3.6680	0.6449	5.96	-0.01	0.750			
0.7170	45891.08	3.6650	3.6650	0.6003	5.96	-0.01	0.750			
0.7188	46000.30	3.6620	3.6621	0.5570	5.97	-0.00	0.750			
0.7204	46103.03	3.6590	3.6589	0.5169	5.97	-0.00	0.750			
0.7219	46198.81	3.6560	3.6557	0.4738	5.97	0.00	0.750			
0.7232	46285.17	3.6530	3.6531	0.4319	5.97	0.00	0.750			
0.7244	46364.58	3.6500	3.6501	0.3936	5.97	0.00	0.750			
0.7256	46436.32	3.6470	3.6470	0.3562	5.98	0.01	0.750			
0.7266	46499.36	3.6440	3.6439	0.3132	5.98	0.01	0.750			
0.7274	46555.71	3.6410	3.6410	0.2795	5.98	0.01	0.750			
0.7282	46607.36	3.6380	3.6380	0.2436	5.98	0.01	0.750			
0.7289	46651.55	3.6350	3.6349	0.2097	5.98	0.01	0.750			
0.7295	46688.55	3.6320	3.6319	0.1725	5.98	0.01	0.750			
0.7300	46718.58	3.6290	3.6292	0.1344	5.98	0.01	0.750			
0.7303	46741.66	3.6260	3.6262	0.0942	5.98	0.01	0.750			
0.7306	46757.13	3.6230	3.6231	0.0482	5.98	0.01	0.750			
0.7307	46761.85	3.6200	3.6215	0.0010	5.98	0.01	0.750			
