Ah_balance (normalized)	Ah_balance (mAh)	Voltage - fit (V)	Voltage -  interpolate (V)	dQ/dV (1/V)	Temperature (°C)	Temperature - diff (°C)	Current (C)	R_DC 0ms (mOhm)	R_DC 50ms (mOhm)	R_DC 50 ms PEC (mOhm)
0.1773	11346.65	4.0830	4.0830	0.7913	7.69	1.72	0.750			
0.1796	11496.72	4.0800	4.0800	0.7754	7.68	1.71	0.750			
0.1819	11642.85	4.0770	4.0771	0.7670	7.67	1.70	0.750			
0.1842	11789.66	4.0740	4.0740	0.7682	7.67	1.70	0.750			
0.1865	11935.01	4.0710	4.0710	0.7738	7.66	1.69	0.750			
0.1888	12083.98	4.0680	4.0678	0.7863	7.65	1.68	0.750			
0.1912	12237.62	4.0650	4.0650	0.7909	7.64	1.67	0.750			
0.1936	12391.17	4.0620	4.0620	0.7896	7.64	1.67	0.750			
0.1960	12544.09	4.0590	4.0591	0.7965	7.63	1.66	0.750			
0.1984	12696.92	4.0560	4.0560	0.7953	7.62	1.65	0.750			
0.2008	12848.53	4.0530	4.0529	0.7954	7.61	1.64	0.750			
0.2031	13000.66	4.0500	4.0501	0.7953	7.60	1.63	0.750			
0.2055	13153.41	4.0470	4.0470	0.7939	7.59	1.62	0.750			
0.2079	13306.39	4.0440	4.0440	0.8018	7.58	1.61	0.750			
0.2103	13460.94	4.0410	4.0411	0.8067	7.57	1.60	0.750			
0.2127	13614.83	4.0380	4.0379	0.8062	7.57	1.60	0.750			
0.2152	13770.89	4.0350	4.0350	0.8118	7.56	1.59	0.750			
0.2176	13927.98	4.0320	4.0321	0.8093	7.55	1.58	0.750			
0.2200	14083.14	4.0290	4.0290	0.8156	7.54	1.57	0.750			
0.2225	14240.18	4.0260	4.0260	0.8212	7.53	1.56	0.750			
0.2250	14396.89	4.0230	4.0230	0.8217	7.52	1.55	0.750			
0.2274	14554.47	4.0200	4.0201	0.8272	7.51	1.54	0.750			
0.2299	14715.17	4.0170	4.0170	0.8302	7.50	1.53	0.750			
0.2324	14875.43	4.0140	4.0140	0.8353	7.49	1.52	0.750			
0.2349	15036.62	4.0110	4.0110	0.8387	7.48	1.51	0.750			
0.2374	15196.66	4.0080	4.0080	0.8398	7.48	1.51	0.750			
0.2400	15358.77	4.0050	4.0050	0.8419	7.47	1.50	0.750			
0.2425	15521.42	4.0020	4.0020	0.8422	7.46	1.49	0.750			
0.2450	15681.85	3.9990	3.9990	0.8491	7.45	1.48	0.750			
0.2476	15845.90	3.9960	3.9960	0.8569	7.44	1.47	0.750			
0.2502	16010.45	3.9930	3.9929	0.8587	7.43	1.46	0.750			
0.2528	16176.43	3.9900	3.9901	0.8624	7.42	1.45	0.750			
0.2554	16343.66	3.9870	3.9870	0.8627	7.41	1.44	0.750			
0.2580	16509.71	3.9840	3.9840	0.8693	7.40	1.43	0.750			
0.2606	16676.20	3.9810	3.9810	0.8730	7.39	1.42	0.750			
0.2632	16842.49	3.9780	3.9779	0.8728	7.37	1.40	0.750			
0.2658	17011.02	3.9750	3.9751	0.8794	7.36	1.39	0.750			
0.2685	17180.95	3.9720	3.9720	0.8851	7.36	1.39	0.750			
0.2711	17351.30	3.9690	3.9690	0.8905	7.35	1.38	0.750			
0.2738	17523.08	3.9660	3.9660	0.8991	7.34	1.37	0.750			
0.2765	17695.33	3.9630	3.9629	0.8982	7.33	1.36	0.750			
0.2792	17870.32	3.9600	3.9600	0.8994	7.32	1.35	0.750			
0.2819	18043.32	3.9570	3.9571	0.9058	7.30	1.33	0.750			
0.2846	18216.99	3.9540	3.9540	0.9119	7.29	1.32	0.750			
0.2874	18392.11	3.9510	3.9511	0.9166	7.28	1.31	0.750			
0.2901	18567.31	3.9480	3.9480	0.9181	7.27	1.30	0.750			
0.2929	18744.10	3.9450	3.9450	0.9198	7.25	1.28	0.750			
0.2956	18921.57	3.9420	3.9420	0.9327	7.24	1.27	0.750			
0.2984	19099.58	3.9390	3.9391	0.9436	7.23	1.26	0.750			
0.3013	19281.94	3.9360	3.9358	0.9481	7.22	1.25	0.750			
0.3041	19465.03	3.9330	3.9331	0.9560	7.21	1.24	0.750			
0.3070	19651.01	3.9300	3.9301	0.9654	7.20	1.23	0.750			
0.3100	19838.09	3.9270	3.9270	0.9754	7.19	1.22	0.750			
0.3129	20025.23	3.9240	3.9240	0.9732	7.17	1.20	0.750			
0.3158	20213.98	3.9210	3.9210	0.9643	7.16	1.19	0.750			
0.3187	20398.21	3.9180	3.9180	0.9664	7.15	1.18	0.750			
0.3216	20582.11	3.9150	3.9152	0.9792	7.15	1.18	0.750			
0.3245	20769.46	3.9120	3.9120	0.9857	7.14	1.17	0.750			
0.3275	20960.77	3.9090	3.9089	0.9872	7.13	1.16	0.750			
0.3305	21148.96	3.9060	3.9061	1.0049	7.11	1.14	0.750			
0.3335	21343.79	3.9030	3.9031	1.0247	7.10	1.13	0.750			
0.3366	21543.60	3.9000	3.9000	1.0430	7.08	1.11	0.750			
0.3397	21743.52	3.8970	3.8968	1.0493	7.07	1.10	0.750			
0.3429	21945.89	3.8940	3.8942	1.0649	7.06	1.09	0.750			
0.3462	22155.15	3.8910	3.8911	1.0831	7.05	1.08	0.750			
0.3495	22365.84	3.8880	3.8879	1.0943	7.04	1.07	0.750			
0.3528	22576.20	3.8850	3.8849	1.0934	7.02	1.05	0.750			
0.3560	22785.82	3.8820	3.8821	1.1117	7.01	1.04	0.750			
0.3594	23000.67	3.8790	3.8791	1.1227	6.99	1.02	0.750			
0.3628	23219.58	3.8760	3.8758	1.1343	6.98	1.01	0.750			
0.3662	23437.21	3.8730	3.8731	1.1410	6.96	0.99	0.750			
0.3696	23655.89	3.8700	3.8700	1.1557	6.95	0.98	0.750			
0.3731	23878.09	3.8670	3.8671	1.1713	6.94	0.97	0.750			
0.3766	24104.75	3.8640	3.8636	1.1887	6.93	0.96	0.750			
0.3802	24333.49	3.8610	3.8611	1.2052	6.91	0.94	0.750			
0.3839	24567.66	3.8580	3.8581	1.2300	6.89	0.92	0.750			
0.3876	24809.46	3.8550	3.8549	1.2449	6.88	0.91	0.750			
0.3914	25048.61	3.8520	3.8520	1.2633	6.87	0.90	0.750			
0.3952	25290.07	3.8490	3.8490	1.2745	6.86	0.89	0.750			
0.3991	25539.48	3.8460	3.8460	1.3059	6.85	0.88	0.750			
0.4030	25789.24	3.8430	3.8429	1.3444	6.85	0.88	0.750			
0.4070	26049.73	3.8400	3.8398	1.3844	6.83	0.86	0.750	0.403	0.922	
0.4113	26321.53	3.8370	3.8372	1.4064	6.82	0.85	0.750			
0.4156	26599.14	3.8340	3.8341	1.4438	6.80	0.83	0.750			
0.4199	26876.70	3.8310	3.8311	1.4537	6.78	0.81	0.750			
0.4243	27158.15	3.8280	3.8281	1.4437	6.76	0.79	0.750			
0.4287	27438.75	3.8250	3.8251	1.4881	6.74	0.77	0.750			
0.4331	27717.90	3.8220	3.8219	1.5049	6.72	0.75	0.750			
0.4376	28008.09	3.8190	3.8191	1.5557	6.71	0.74	0.750			
0.4423	28305.54	3.8160	3.8163	1.5741	6.69	0.72	0.750			
0.4471	28617.18	3.8130	3.8129	1.6004	6.67	0.70	0.750			
0.4519	28924.62	3.8100	3.8099	1.6429	6.65	0.68	0.750			
0.4569	29242.95	3.8070	3.8072	1.6748	6.63	0.66	0.750			
0.4621	29574.37	3.8040	3.8038	1.7031	6.62	0.65	0.750			
0.4673	29909.89	3.8010	3.8011	1.7294	6.59	0.62	0.750			
0.4722	30222.92	3.7980	3.7982	1.7582	6.57	0.60	0.750			
0.4777	30569.93	3.7950	3.7945	1.8293	6.55	0.58	0.750			
0.4831	30918.54	3.7920	3.7917	1.8017	6.53	0.56	0.750			
0.4888	31282.47	3.7890	3.7886	1.8674	6.51	0.54	0.750			
0.4943	31635.04	3.7860	3.7861	1.8694	6.49	0.52	0.750			
0.4999	31990.81	3.7830	3.7828	1.8681	6.47	0.50	0.750			
0.5055	32350.90	3.7800	3.7798	1.8847	6.44	0.47	0.750			
0.5109	32700.67	3.7770	3.7771	1.9090	6.42	0.45	0.750			
0.5168	33072.71	3.7740	3.7740	1.9175	6.40	0.43	0.750			
0.5226	33443.48	3.7710	3.7711	1.9017	6.37	0.40	0.750			
0.5284	33815.02	3.7680	3.7681	1.9748	6.34	0.37	0.750			
0.5343	34194.11	3.7650	3.7651	2.0207	6.33	0.36	0.750			
0.5403	34581.95	3.7620	3.7620	1.9991	6.31	0.34	0.750			
0.5464	34971.77	3.7590	3.7590	2.0560	6.29	0.32	0.750			
0.5527	35373.49	3.7560	3.7559	2.0548	6.27	0.30	0.750			
0.5587	35756.16	3.7530	3.7529	2.0266	6.25	0.28	0.750			
0.5647	36143.69	3.7500	3.7504	2.1110	6.23	0.26	0.750			
0.5712	36557.67	3.7470	3.7469	2.1384	6.20	0.23	0.750			
0.5775	36962.62	3.7440	3.7440	2.2402	6.18	0.21	0.750			
0.5847	37417.81	3.7410	3.7408	2.3292	6.15	0.18	0.750			
0.5917	37868.63	3.7380	3.7382	2.3617	6.13	0.16	0.750			
0.5990	38336.97	3.7350	3.7348	2.4438	6.12	0.15	0.750			
0.6060	38785.82	3.7320	3.7321	2.4590	6.10	0.13	0.750			
0.6139	39287.42	3.7290	3.7290	2.5592	6.07	0.10	0.750			
0.6216	39785.00	3.7260	3.7261	2.5478	6.05	0.08	0.750			
0.6294	40280.44	3.7230	3.7228	2.4885	6.03	0.06	0.750			
0.6366	40741.66	3.7200	3.7200	2.3256	6.02	0.05	0.750			
0.6434	41179.79	3.7170	3.7171	2.1688	6.00	0.03	0.750			
0.6498	41590.27	3.7140	3.7140	1.9914	5.99	0.02	0.750			
0.6554	41944.27	3.7110	3.7109	1.7854	5.98	0.01	0.750			
0.6606	42278.28	3.7080	3.7083	1.6465	5.98	0.01	0.750			
0.6652	42569.87	3.7050	3.7050	1.4635	5.97	-0.00	0.750			
0.6693	42832.47	3.7020	3.7021	1.3150	5.96	-0.01	0.750			
0.6728	43059.74	3.6990	3.6991	1.1743	5.96	-0.01	0.750			
0.6762	43274.93	3.6960	3.6958	1.0933	5.95	-0.02	0.750			
0.6792	43470.85	3.6930	3.6929	1.0044	5.95	-0.02	0.750			
0.6819	43642.46	3.6900	3.6900	0.9396	5.95	-0.02	0.750			
0.6847	43819.00	3.6870	3.6871	0.9066	5.95	-0.02	0.750			
0.6874	43992.48	3.6840	3.6840	0.8816	5.95	-0.02	0.750			
0.6900	44159.14	3.6810	3.6810	0.8568	5.95	-0.02	0.750			
0.6925	44322.32	3.6780	3.6781	0.8293	5.95	-0.02	0.750			
0.6950	44480.37	3.6750	3.6750	0.8057	5.95	-0.02	0.750			
0.6974	44632.49	3.6720	3.6720	0.7771	5.95	-0.02	0.750			
0.6997	44777.89	3.6690	3.6690	0.7420	5.95	-0.02	0.750			
0.7019	44918.98	3.6660	3.6659	0.7121	5.95	-0.02	0.750			
0.7039	45052.14	3.6630	3.6630	0.6742	5.95	-0.02	0.750			
0.7059	45178.01	3.6600	3.6600	0.6413	5.96	-0.01	0.750			
0.7078	45298.69	3.6570	3.6571	0.6040	5.96	-0.01	0.750			
0.7095	45410.12	3.6540	3.6539	0.5690	5.96	-0.01	0.750			
0.7112	45515.88	3.6510	3.6510	0.5343	5.97	-0.00	0.750			
0.7128	45616.12	3.6480	3.6481	0.5006	5.97	-0.00	0.750			
0.7142	45708.45	3.6450	3.6450	0.4691	5.97	0.00	0.750			
0.7156	45795.40	3.6420	3.6420	0.4346	5.97	0.00	0.750			
0.7168	45874.99	3.6390	3.6390	0.3986	5.97	0.00	0.750			
0.7180	45949.20	3.6360	3.6360	0.3679	5.98	0.01	0.750			
0.7190	46015.83	3.6330	3.6331	0.3314	5.98	0.01	0.750			
0.7200	46077.21	3.6300	3.6299	0.2985	5.98	0.01	0.750			
0.7208	46132.30	3.6270	3.6269	0.2617	5.98	0.01	0.750			
0.7215	46178.49	3.6240	3.6240	0.2218	5.98	0.01	0.750			
0.7222	46219.09	3.6210	3.6210	0.1861	5.98	0.01	0.750			
0.7227	46251.21	3.6180	3.6181	0.1450	5.98	0.01	0.750			
0.7230	46274.98	3.6150	3.6154	0.1026	5.98	0.01	0.750			
0.7233	46291.74	3.6120	3.6127	0.0583	5.98	0.01	0.750			
0.7234	46298.58	3.6090	3.6104	0.0130	5.99	0.02	0.750			
