Ah_balance (normalized)	Ah_balance (mAh)	Voltage - fit (V)	Voltage -  interpolate (V)	dQ/dV (1/V)	Temperature (°C)	Temperature - diff (°C)	Current (C)	R_DC 0ms (mOhm)	R_DC 50ms (mOhm)	R_DC 50 ms PEC (mOhm)
0.1784	11419.87	4.0810	4.0810	0.7312	7.36	1.39	0.750			
0.1806	11561.17	4.0780	4.0781	0.7359	7.36	1.39	0.750			
0.1828	11701.61	4.0750	4.0750	0.7486	7.35	1.38	0.750			
0.1851	11848.74	4.0720	4.0721	0.7689	7.34	1.37	0.750			
0.1875	11997.85	4.0690	4.0687	0.7844	7.34	1.37	0.750			
0.1899	12151.68	4.0660	4.0661	0.7978	7.33	1.36	0.750			
0.1923	12309.51	4.0630	4.0631	0.7973	7.33	1.36	0.750			
0.1947	12462.21	4.0600	4.0600	0.8056	7.32	1.35	0.750			
0.1971	12614.58	4.0570	4.0572	0.8026	7.32	1.35	0.750			
0.1995	12770.00	4.0540	4.0535	0.8041	7.31	1.34	0.750			
0.2020	12924.80	4.0510	4.0511	0.8068	7.31	1.34	0.750			
0.2044	13078.86	4.0480	4.0481	0.8089	7.30	1.33	0.750			
0.2068	13236.70	4.0450	4.0450	0.8202	7.30	1.33	0.750			
0.2093	13393.47	4.0420	4.0419	0.8134	7.29	1.32	0.750			
0.2117	13549.98	4.0390	4.0389	0.8183	7.29	1.32	0.750			
0.2142	13708.30	4.0360	4.0361	0.8228	7.29	1.32	0.750			
0.2167	13868.52	4.0330	4.0330	0.8239	7.28	1.31	0.750			
0.2191	14025.52	4.0300	4.0300	0.8278	7.27	1.30	0.750			
0.2216	14182.93	4.0270	4.0271	0.8234	7.27	1.30	0.750			
0.2241	14341.99	4.0240	4.0239	0.8304	7.26	1.29	0.750			
0.2266	14502.49	4.0210	4.0210	0.8358	7.26	1.29	0.750			
0.2291	14663.54	4.0180	4.0181	0.8350	7.25	1.28	0.750			
0.2316	14825.10	4.0150	4.0150	0.8419	7.24	1.27	0.750			
0.2342	14986.40	4.0120	4.0120	0.8384	7.24	1.27	0.750			
0.2367	15147.27	4.0090	4.0089	0.8409	7.23	1.26	0.750			
0.2392	15309.11	4.0060	4.0060	0.8460	7.23	1.26	0.750			
0.2417	15471.96	4.0030	4.0030	0.8461	7.22	1.25	0.750			
0.2443	15635.28	4.0000	4.0000	0.8514	7.22	1.25	0.750			
0.2469	15798.61	3.9970	3.9970	0.8507	7.21	1.24	0.750			
0.2494	15962.08	3.9940	3.9940	0.8562	7.21	1.24	0.750			
0.2520	16127.20	3.9910	3.9909	0.8609	7.20	1.23	0.750			
0.2546	16291.82	3.9880	3.9880	0.8634	7.19	1.22	0.750			
0.2572	16458.10	3.9850	3.9851	0.8678	7.19	1.22	0.750			
0.2598	16625.10	3.9820	3.9820	0.8732	7.18	1.21	0.750			
0.2624	16794.08	3.9790	3.9788	0.8762	7.17	1.20	0.750			
0.2650	16963.16	3.9760	3.9761	0.8769	7.16	1.19	0.750			
0.2677	17131.20	3.9730	3.9729	0.8786	7.15	1.18	0.750			
0.2703	17300.33	3.9700	3.9701	0.8851	7.14	1.17	0.750			
0.2730	17470.51	3.9670	3.9671	0.8894	7.14	1.17	0.750			
0.2756	17640.41	3.9640	3.9640	0.8948	7.13	1.16	0.750			
0.2783	17814.15	3.9610	3.9610	0.8925	7.12	1.15	0.750			
0.2810	17984.91	3.9580	3.9581	0.9043	7.12	1.15	0.750			
0.2837	18158.58	3.9550	3.9551	0.9108	7.12	1.15	0.750			
0.2865	18333.04	3.9520	3.9519	0.9214	7.11	1.14	0.750			
0.2893	18514.57	3.9490	3.9490	0.9159	7.10	1.13	0.750			
0.2920	18690.94	3.9460	3.9460	0.9200	7.09	1.12	0.750			
0.2948	18867.05	3.9430	3.9431	0.9238	7.09	1.12	0.750			
0.2976	19045.36	3.9400	3.9402	0.9329	7.08	1.11	0.750			
0.3003	19219.99	3.9370	3.9367	0.9318	7.07	1.10	0.750			
0.3032	19401.89	3.9340	3.9340	0.9294	7.06	1.09	0.750			
0.3059	19577.89	3.9310	3.9311	0.9436	7.05	1.08	0.750			
0.3088	19763.91	3.9280	3.9281	0.9588	7.04	1.07	0.750			
0.3117	19949.02	3.9250	3.9248	0.9649	7.03	1.06	0.750			
0.3146	20135.53	3.9220	3.9220	0.9642	7.02	1.05	0.750			
0.3175	20320.31	3.9190	3.9192	0.9802	7.01	1.04	0.750			
0.3205	20510.08	3.9160	3.9161	0.9907	7.00	1.03	0.750			
0.3235	20701.52	3.9130	3.9129	0.9961	6.99	1.02	0.750			
0.3265	20895.22	3.9100	3.9101	1.0030	6.98	1.01	0.750			
0.3295	21088.48	3.9070	3.9071	1.0173	6.97	1.00	0.750			
0.3326	21284.60	3.9040	3.9040	1.0235	6.96	0.99	0.750			
0.3357	21481.80	3.9010	3.9010	1.0289	6.95	0.98	0.750			
0.3388	21681.96	3.8980	3.8980	1.0300	6.94	0.97	0.750			
0.3418	21877.60	3.8950	3.8951	1.0539	6.93	0.96	0.750			
0.3450	22082.40	3.8920	3.8920	1.0649	6.92	0.95	0.750			
0.3483	22289.34	3.8890	3.8890	1.0818	6.91	0.94	0.750			
0.3515	22497.54	3.8860	3.8861	1.0852	6.90	0.93	0.750			
0.3548	22706.98	3.8830	3.8832	1.1091	6.89	0.92	0.750			
0.3581	22921.23	3.8800	3.8800	1.1239	6.88	0.91	0.750			
0.3616	23141.78	3.8770	3.8768	1.1332	6.87	0.90	0.750			
0.3649	23355.57	3.8740	3.8742	1.1365	6.86	0.89	0.750			
0.3684	23577.18	3.8710	3.8711	1.1628	6.86	0.89	0.750			
0.3719	23802.10	3.8680	3.8680	1.1753	6.85	0.88	0.750			
0.3755	24031.83	3.8650	3.8649	1.1639	6.84	0.87	0.750			
0.3789	24251.03	3.8620	3.8621	1.1893	6.83	0.86	0.750			
0.3826	24487.22	3.8590	3.8591	1.2041	6.82	0.85	0.750			
0.3861	24708.18	3.8560	3.8560	1.2830	6.81	0.84	0.750			
0.3899	24954.67	3.8530	3.8531	1.3426	6.80	0.83	0.750			
0.3941	25219.99	3.8500	3.8499	1.3989	6.79	0.82	0.750			
0.3986	25507.51	3.8470	3.8469	1.4150	6.77	0.80	0.750			
0.4030	25791.98	3.8440	3.8444	1.4596	6.76	0.79	0.750			
0.4074	26074.80	3.8410	3.8413	1.4662	6.75	0.78	0.750			
0.4118	26353.54	3.8380	3.8376	1.4570	6.73	0.76	0.750			
0.4160	26624.27	3.8350	3.8351	1.4170	6.72	0.75	0.750	0.411	0.958	
0.4203	26898.84	3.8320	3.8323	1.4518	6.70	0.73	0.750			
0.4247	27180.55	3.8290	3.8288	1.4959	6.69	0.72	0.750			
0.4292	27468.74	3.8260	3.8260	1.5203	6.68	0.71	0.750			
0.4338	27760.59	3.8230	3.8231	1.5331	6.66	0.69	0.750			
0.4384	28060.30	3.8200	3.8200	1.5683	6.65	0.68	0.750			
0.4432	28365.60	3.8170	3.8171	1.6021	6.63	0.66	0.750			
0.4481	28680.44	3.8140	3.8139	1.6163	6.61	0.64	0.750			
0.4529	28984.95	3.8110	3.8111	1.6431	6.60	0.63	0.750			
0.4578	29299.66	3.8080	3.8081	1.6965	6.58	0.61	0.750			
0.4630	29631.53	3.8050	3.8049	1.7223	6.57	0.60	0.750			
0.4681	29961.09	3.8020	3.8020	1.7577	6.55	0.58	0.750			
0.4736	30307.83	3.7990	3.7990	1.7821	6.53	0.56	0.750			
0.4790	30655.27	3.7960	3.7962	1.8267	6.51	0.54	0.750			
0.4845	31008.65	3.7930	3.7933	1.8726	6.48	0.51	0.750			
0.4902	31371.06	3.7900	3.7898	1.9289	6.46	0.49	0.750			
0.4960	31743.98	3.7870	3.7870	1.9556	6.44	0.47	0.750			
0.5020	32129.38	3.7840	3.7839	1.9886	6.42	0.45	0.750			
0.5081	32519.01	3.7810	3.7810	1.9579	6.40	0.43	0.750			
0.5140	32893.04	3.7780	3.7780	1.9327	6.38	0.41	0.750			
0.5197	33257.70	3.7750	3.7751	1.9604	6.35	0.38	0.750			
0.5255	33634.02	3.7720	3.7716	1.9959	6.33	0.36	0.750			
0.5315	34017.44	3.7690	3.7692	2.0346	6.31	0.34	0.750			
0.5377	34410.06	3.7660	3.7664	2.1586	6.29	0.32	0.750			
0.5444	34839.63	3.7630	3.7628	2.1507	6.27	0.30	0.750			
0.5509	35258.69	3.7600	3.7603	2.1683	6.25	0.28	0.750			
0.5576	35685.32	3.7570	3.7568	2.1953	6.22	0.25	0.750			
0.5640	36093.43	3.7540	3.7541	2.2020	6.20	0.23	0.750			
0.5709	36536.09	3.7510	3.7509	2.3355	6.18	0.21	0.750			
0.5779	36987.76	3.7480	3.7485	2.3435	6.16	0.19	0.750			
0.5850	37443.05	3.7450	3.7450	2.4009	6.14	0.17	0.750			
0.5922	37898.66	3.7420	3.7419	2.4029	6.11	0.14	0.750			
0.5996	38374.40	3.7390	3.7391	2.5314	6.09	0.12	0.750			
0.6074	38870.94	3.7360	3.7360	2.5848	6.07	0.10	0.750			
0.6153	39378.16	3.7330	3.7333	2.6868	6.05	0.08	0.750			
0.6235	39906.06	3.7300	3.7300	2.7580	6.03	0.06	0.750			
0.6318	40436.47	3.7270	3.7271	2.8088	6.01	0.04	0.750			
0.6404	40988.40	3.7240	3.7240	2.7428	5.98	0.01	0.750			
0.6485	41505.97	3.7210	3.7209	2.7210	5.97	0.00	0.750			
0.6567	42030.33	3.7180	3.7179	2.6335	5.96	-0.01	0.750			
0.6645	42530.08	3.7150	3.7152	2.5201	5.95	-0.02	0.750			
0.6719	43000.80	3.7120	3.7120	2.2878	5.95	-0.02	0.750			
0.6783	43412.49	3.7090	3.7090	2.0143	5.94	-0.03	0.750			
0.6840	43777.73	3.7060	3.7062	1.7975	5.94	-0.03	0.750			
0.6889	44090.78	3.7030	3.7029	1.5543	5.93	-0.04	0.750			
0.6931	44355.22	3.7000	3.7000	1.3642	5.93	-0.04	0.750			
0.6966	44583.06	3.6970	3.6971	1.1871	5.93	-0.04	0.750			
0.7000	44797.73	3.6940	3.6941	1.0897	5.93	-0.04	0.750			
0.7030	44991.12	3.6910	3.6910	0.9865	5.94	-0.03	0.750			
0.7057	45166.64	3.6880	3.6880	0.9237	5.94	-0.03	0.750			
0.7084	45335.19	3.6850	3.6850	0.8700	5.94	-0.03	0.750			
0.7109	45494.78	3.6820	3.6819	0.8224	5.95	-0.02	0.750			
0.7133	45648.95	3.6790	3.6791	0.7830	5.95	-0.02	0.750			
0.7156	45798.20	3.6760	3.6761	0.7426	5.96	-0.01	0.750			
0.7178	45938.04	3.6730	3.6730	0.6988	5.96	-0.01	0.750			
0.7198	46069.32	3.6700	3.6700	0.6490	5.96	-0.01	0.750			
0.7217	46185.86	3.6670	3.6670	0.5969	5.97	-0.00	0.750			
0.7234	46296.09	3.6640	3.6640	0.5505	5.97	-0.00	0.750			
0.7249	46396.27	3.6610	3.6612	0.5066	5.97	0.00	0.750			
0.7264	46488.96	3.6580	3.6581	0.4638	5.97	0.00	0.750			
0.7277	46573.61	3.6550	3.6550	0.4227	5.97	0.00	0.750			
0.7289	46650.70	3.6520	3.6520	0.3839	5.98	0.01	0.750			
0.7300	46719.67	3.6490	3.6491	0.3431	5.98	0.01	0.750			
0.7310	46782.01	3.6460	3.6459	0.3071	5.98	0.01	0.750			
0.7318	46837.77	3.6430	3.6432	0.2721	5.98	0.01	0.750			
0.7326	46886.87	3.6400	3.6399	0.2335	5.98	0.01	0.750			
0.7333	46929.05	3.6370	3.6371	0.1986	5.98	0.01	0.750			
0.7338	46964.09	3.6340	3.6340	0.1605	5.98	0.01	0.750			
0.7342	46990.93	3.6310	3.6311	0.1201	5.99	0.02	0.750			
0.7345	47010.58	3.6280	3.6283	0.0787	5.99	0.02	0.750			
0.7347	47021.63	3.6250	3.6263	0.0381	5.99	0.02	0.750			
