Ah_balance (normalized)	Ah_balance (mAh)	Voltage - fit (V)	Voltage -  interpolate (V)	dQ/dV (1/V)	Temperature (°C)	Temperature - diff (°C)	Current (C)	R_DC 0ms (mOhm)	R_DC 50ms (mOhm)	R_DC 50 ms PEC (mOhm)
0.1805	11551.55	4.0810	4.0810	0.7813	7.47	1.48	0.750			
0.1828	11700.77	4.0780	4.0780	0.7778	7.47	1.48	0.750			
0.1851	11849.53	4.0750	4.0749	0.7795	7.47	1.48	0.750			
0.1875	11999.91	4.0720	4.0720	0.7843	7.47	1.48	0.750			
0.1899	12150.85	4.0690	4.0690	0.7844	7.47	1.48	0.750			
0.1922	12302.62	4.0660	4.0659	0.7894	7.47	1.48	0.750			
0.1946	12455.21	4.0630	4.0631	0.7839	7.47	1.48	0.750			
0.1969	12603.27	4.0600	4.0600	0.7863	7.47	1.48	0.750			
0.1993	12753.64	4.0570	4.0571	0.7873	7.47	1.48	0.750			
0.2016	12903.16	4.0540	4.0537	0.7897	7.47	1.48	0.750			
0.2040	13055.27	4.0510	4.0511	0.7984	7.47	1.48	0.750			
0.2064	13212.38	4.0480	4.0480	0.8002	7.46	1.47	0.750			
0.2088	13365.88	4.0450	4.0450	0.8032	7.46	1.47	0.750			
0.2112	13519.46	4.0420	4.0421	0.8016	7.45	1.46	0.750			
0.2137	13673.63	4.0390	4.0387	0.8053	7.45	1.46	0.750			
0.2161	13827.44	4.0360	4.0361	0.8128	7.45	1.46	0.750			
0.2185	13984.14	4.0330	4.0330	0.8145	7.44	1.45	0.750			
0.2210	14142.55	4.0300	4.0300	0.8201	7.44	1.45	0.750			
0.2235	14300.91	4.0270	4.0270	0.8177	7.43	1.44	0.750			
0.2259	14458.00	4.0240	4.0240	0.8229	7.43	1.44	0.750			
0.2284	14615.86	4.0210	4.0211	0.8275	7.43	1.44	0.750			
0.2309	14775.22	4.0180	4.0179	0.8303	7.42	1.43	0.750			
0.2333	14933.69	4.0150	4.0150	0.8321	7.42	1.43	0.750			
0.2359	15095.00	4.0120	4.0120	0.8378	7.41	1.42	0.750			
0.2384	15257.16	4.0090	4.0090	0.8411	7.41	1.42	0.750			
0.2409	15419.72	4.0060	4.0060	0.8446	7.41	1.42	0.750			
0.2434	15580.71	4.0030	4.0030	0.8448	7.40	1.41	0.750			
0.2460	15742.95	4.0000	4.0000	0.8472	7.40	1.41	0.750			
0.2485	15905.87	3.9970	3.9970	0.8508	7.39	1.40	0.750			
0.2511	16069.86	3.9940	3.9938	0.8536	7.39	1.40	0.750			
0.2537	16234.36	3.9910	3.9911	0.8548	7.39	1.40	0.750			
0.2562	16398.75	3.9880	3.9880	0.8573	7.38	1.39	0.750			
0.2588	16563.38	3.9850	3.9851	0.8621	7.38	1.39	0.750			
0.2614	16729.51	3.9820	3.9819	0.8641	7.37	1.38	0.750			
0.2640	16894.76	3.9790	3.9790	0.8663	7.37	1.38	0.750			
0.2666	17061.07	3.9760	3.9760	0.8706	7.36	1.37	0.750			
0.2692	17229.02	3.9730	3.9730	0.8780	7.36	1.37	0.750			
0.2718	17397.84	3.9700	3.9700	0.8837	7.35	1.36	0.750			
0.2745	17567.39	3.9670	3.9670	0.8881	7.34	1.35	0.750			
0.2772	17739.28	3.9640	3.9641	0.8882	7.34	1.35	0.750			
0.2799	17912.52	3.9610	3.9609	0.8842	7.33	1.34	0.750			
0.2825	18081.21	3.9580	3.9581	0.8935	7.33	1.34	0.750			
0.2852	18252.00	3.9550	3.9550	0.8992	7.33	1.34	0.750			
0.2879	18423.42	3.9520	3.9518	0.9047	7.32	1.33	0.750			
0.2906	18598.49	3.9490	3.9491	0.9111	7.32	1.33	0.750			
0.2934	18774.69	3.9460	3.9461	0.9185	7.31	1.32	0.750			
0.2961	18952.02	3.9430	3.9430	0.9299	7.30	1.31	0.750			
0.2990	19132.81	3.9400	3.9400	0.9355	7.30	1.31	0.750			
0.3017	19310.83	3.9370	3.9370	0.9377	7.29	1.30	0.750			
0.3046	19492.87	3.9340	3.9339	0.9374	7.28	1.29	0.750			
0.3074	19673.16	3.9310	3.9311	0.9463	7.28	1.29	0.750			
0.3102	19855.81	3.9280	3.9281	0.9512	7.28	1.29	0.750			
0.3131	20037.75	3.9250	3.9249	0.9575	7.27	1.28	0.750			
0.3160	20221.47	3.9220	3.9220	0.9569	7.27	1.28	0.750			
0.3188	20406.29	3.9190	3.9191	0.9697	7.26	1.27	0.750			
0.3218	20593.14	3.9160	3.9160	0.9781	7.26	1.27	0.750			
0.3247	20779.97	3.9130	3.9131	0.9900	7.25	1.26	0.750			
0.3277	20974.81	3.9100	3.9100	0.9984	7.25	1.26	0.750			
0.3307	21166.82	3.9070	3.9070	1.0080	7.24	1.25	0.750			
0.3338	21360.55	3.9040	3.9041	1.0174	7.23	1.24	0.750			
0.3368	21556.56	3.9010	3.9010	1.0286	7.22	1.23	0.750			
0.3399	21755.40	3.8980	3.8979	1.0327	7.21	1.22	0.750			
0.3430	21954.04	3.8950	3.8950	1.0505	7.20	1.21	0.750			
0.3462	22155.42	3.8920	3.8921	1.0630	7.20	1.21	0.750			
0.3494	22363.69	3.8890	3.8890	1.0793	7.19	1.20	0.750			
0.3527	22574.23	3.8860	3.8860	1.0792	7.19	1.20	0.750			
0.3559	22780.20	3.8830	3.8830	1.0949	7.18	1.19	0.750			
0.3592	22991.18	3.8800	3.8800	1.1094	7.16	1.17	0.750			
0.3626	23205.57	3.8770	3.8769	1.1233	7.15	1.16	0.750			
0.3659	23420.12	3.8740	3.8741	1.1280	7.14	1.15	0.750			
0.3694	23638.91	3.8710	3.8711	1.1463	7.13	1.14	0.750			
0.3728	23861.23	3.8680	3.8680	1.1653	7.12	1.13	0.750			
0.3764	24088.18	3.8650	3.8647	1.1816	7.11	1.12	0.750			
0.3799	24312.81	3.8620	3.8621	1.1942	7.10	1.11	0.750			
0.3835	24545.13	3.8590	3.8591	1.2150	7.09	1.10	0.750			
0.3873	24784.16	3.8560	3.8559	1.2291	7.08	1.09	0.750			
0.3909	25018.27	3.8530	3.8531	1.2465	7.07	1.08	0.750			
0.3946	25257.34	3.8500	3.8500	1.2715	7.06	1.07	0.750			
0.3985	25501.11	3.8470	3.8471	1.3041	7.05	1.06	0.750			
0.4024	25754.83	3.8440	3.8439	1.3419	7.04	1.05	0.750			
0.4063	26004.94	3.8410	3.8411	1.3557	7.02	1.03	0.750			
0.4105	26272.47	3.8380	3.8381	1.3901	7.00	1.01	0.750			
0.4148	26544.06	3.8350	3.8351	1.4315	6.99	1.00	0.750	0.409	0.940	
0.4191	26820.01	3.8320	3.8322	1.4562	6.97	0.98	0.750			
0.4236	27110.01	3.8290	3.8292	1.4660	6.96	0.97	0.750			
0.4280	27394.69	3.8260	3.8260	1.4918	6.94	0.95	0.750			
0.4324	27675.07	3.8230	3.8231	1.4906	6.92	0.93	0.750			
0.4369	27964.79	3.8200	3.8199	1.5087	6.90	0.91	0.750			
0.4415	28257.02	3.8170	3.8172	1.5473	6.88	0.89	0.750			
0.4462	28555.43	3.8140	3.8140	1.5960	6.87	0.88	0.750			
0.4511	28868.07	3.8110	3.8108	1.6311	6.85	0.86	0.750			
0.4560	29185.80	3.8080	3.8081	1.6436	6.83	0.84	0.750			
0.4611	29510.81	3.8050	3.8051	1.6846	6.82	0.83	0.750			
0.4662	29835.04	3.8020	3.8020	1.7494	6.80	0.81	0.750			
0.4714	30172.67	3.7990	3.7989	1.7562	6.78	0.79	0.750			
0.4768	30513.97	3.7960	3.7956	1.8003	6.76	0.77	0.750			
0.4823	30864.67	3.7930	3.7932	1.8177	6.74	0.75	0.750			
0.4877	31212.86	3.7900	3.7900	1.8489	6.71	0.72	0.750			
0.4934	31575.34	3.7870	3.7871	1.8685	6.69	0.70	0.750			
0.4990	31936.27	3.7840	3.7840	1.9211	6.66	0.67	0.750			
0.5048	32306.78	3.7810	3.7804	1.9821	6.64	0.65	0.750			
0.5108	32694.39	3.7780	3.7782	2.0083	6.62	0.63	0.750			
0.5168	33075.43	3.7750	3.7750	2.0696	6.60	0.61	0.750			
0.5231	33476.16	3.7720	3.7717	2.1620	6.57	0.58	0.750			
0.5299	33914.32	3.7690	3.7688	2.2129	6.55	0.56	0.750			
0.5367	34347.21	3.7660	3.7662	2.2253	6.52	0.53	0.750			
0.5435	34781.69	3.7630	3.7628	2.2150	6.49	0.50	0.750			
0.5499	35194.71	3.7600	3.7600	2.1582	6.46	0.47	0.750			
0.5564	35611.39	3.7570	3.7571	2.1882	6.43	0.44	0.750			
0.5628	36019.43	3.7540	3.7541	2.2072	6.39	0.40	0.750			
0.5697	36460.21	3.7510	3.7508	2.2563	6.37	0.38	0.750			
0.5765	36898.46	3.7480	3.7479	2.3125	6.35	0.36	0.750			
0.5836	37347.59	3.7450	3.7450	2.3532	6.32	0.33	0.750			
0.5906	37799.01	3.7420	3.7420	2.3938	6.28	0.29	0.750			
0.5979	38263.79	3.7390	3.7390	2.5119	6.26	0.27	0.750			
0.6056	38759.27	3.7360	3.7359	2.6341	6.23	0.24	0.750			
0.6137	39274.72	3.7330	3.7330	2.6587	6.19	0.20	0.750			
0.6219	39800.99	3.7300	3.7301	2.7310	6.16	0.17	0.750			
0.6299	40313.13	3.7270	3.7270	2.6473	6.14	0.15	0.750			
0.6378	40818.20	3.7240	3.7240	2.6526	6.10	0.11	0.750			
0.6457	41327.95	3.7210	3.7210	2.6462	6.08	0.09	0.750			
0.6537	41836.97	3.7180	3.7180	2.5424	6.05	0.06	0.750			
0.6612	42315.61	3.7150	3.7151	2.3491	6.04	0.05	0.750			
0.6679	42747.52	3.7120	3.7119	2.1332	6.02	0.03	0.750			
0.6740	43135.21	3.7090	3.7088	1.8966	6.01	0.02	0.750			
0.6794	43479.27	3.7060	3.7062	1.6948	6.01	0.02	0.750			
0.6841	43781.22	3.7030	3.7032	1.4894	6.00	0.01	0.750			
0.6880	44034.40	3.7000	3.6999	1.3129	5.99	0.00	0.750			
0.6917	44266.62	3.6970	3.6969	1.1606	5.99	-0.00	0.750			
0.6949	44475.68	3.6940	3.6939	1.0682	5.98	-0.01	0.750			
0.6978	44657.54	3.6910	3.6911	0.9827	5.98	-0.01	0.750			
0.7006	44836.28	3.6880	3.6879	0.9223	5.97	-0.02	0.750			
0.7033	45008.11	3.6850	3.6850	0.8778	5.97	-0.02	0.750			
0.7058	45171.17	3.6820	3.6820	0.8350	5.97	-0.02	0.750			
0.7082	45327.39	3.6790	3.6791	0.7940	5.97	-0.02	0.750			
0.7106	45478.93	3.6760	3.6759	0.7577	5.97	-0.02	0.750			
0.7128	45618.41	3.6730	3.6730	0.7096	5.97	-0.02	0.750			
0.7149	45750.93	3.6700	3.6699	0.6682	5.97	-0.02	0.750			
0.7168	45875.24	3.6670	3.6671	0.6262	5.97	-0.02	0.750			
0.7186	45991.78	3.6640	3.6640	0.5832	5.98	-0.01	0.750			
0.7203	46099.08	3.6610	3.6610	0.5394	5.98	-0.01	0.750			
0.7219	46198.67	3.6580	3.6580	0.4957	5.98	-0.01	0.750			
0.7233	46288.96	3.6550	3.6550	0.4540	5.99	-0.00	0.750			
0.7246	46372.26	3.6520	3.6519	0.4137	5.99	-0.00	0.750			
0.7257	46446.56	3.6490	3.6490	0.3731	5.99	-0.00	0.750			
0.7268	46513.98	3.6460	3.6461	0.3367	5.99	0.00	0.750			
0.7277	46575.04	3.6430	3.6430	0.3011	5.99	0.00	0.750			
0.7286	46629.39	3.6400	3.6399	0.2661	5.99	0.00	0.750			
0.7293	46677.78	3.6370	3.6370	0.2277	5.99	0.00	0.750			
0.7300	46718.53	3.6340	3.6341	0.1914	6.00	0.01	0.750			
0.7305	46752.41	3.6310	3.6311	0.1545	6.00	0.01	0.750			
0.7309	46779.32	3.6280	3.6281	0.1156	6.00	0.01	0.750			
0.7312	46797.60	3.6250	3.6254	0.0746	6.00	0.01	0.750			
0.7314	46807.97	3.6220	3.6228	0.0336	6.00	0.01	0.750			
0.7314	46810.49	3.6190	3.6216	-0.0074	6.00	0.01	0.750			
