Ah_balance (normalized)	Ah_balance (mAh)	Voltage - fit (V)	Voltage -  interpolate (V)	dQ/dV (1/V)	Temperature (°C)	Temperature - diff (°C)	Current (C)	R_DC 0ms (mOhm)	R_DC 50ms (mOhm)	R_DC 50 ms PEC (mOhm)
0.1737	11115.07	4.0830	4.0831	0.8195	7.71	1.72	0.750			
0.1761	11270.36	4.0800	4.0800	0.7994	7.71	1.72	0.750			
0.1785	11421.30	4.0770	4.0769	0.7832	7.70	1.71	0.750			
0.1807	11567.65	4.0740	4.0741	0.7807	7.70	1.71	0.750			
0.1831	11716.38	4.0710	4.0710	0.7854	7.69	1.70	0.750			
0.1855	11868.84	4.0680	4.0677	0.7894	7.69	1.70	0.750			
0.1878	12020.72	4.0650	4.0650	0.7912	7.68	1.69	0.750			
0.1902	12175.49	4.0620	4.0623	0.7944	7.68	1.69	0.750			
0.1927	12329.89	4.0590	4.0589	0.7973	7.67	1.68	0.750			
0.1950	12481.33	4.0560	4.0559	0.7993	7.66	1.67	0.750			
0.1973	12630.16	4.0530	4.0531	0.7933	7.65	1.66	0.750			
0.1997	12783.49	4.0500	4.0500	0.8019	7.65	1.66	0.750			
0.2022	12943.49	4.0470	4.0470	0.8009	7.64	1.65	0.750			
0.2046	13095.99	4.0440	4.0441	0.8027	7.64	1.65	0.750			
0.2070	13249.95	4.0410	4.0410	0.8069	7.63	1.64	0.750			
0.2094	13402.95	4.0380	4.0380	0.8109	7.62	1.63	0.750			
0.2118	13556.50	4.0350	4.0350	0.8118	7.62	1.63	0.750			
0.2143	13716.08	4.0320	4.0320	0.8119	7.61	1.62	0.750			
0.2167	13871.54	4.0290	4.0291	0.8237	7.60	1.61	0.750			
0.2192	14031.78	4.0260	4.0261	0.8293	7.59	1.60	0.750			
0.2217	14189.27	4.0230	4.0230	0.8316	7.58	1.59	0.750			
0.2242	14350.12	4.0200	4.0200	0.8342	7.57	1.58	0.750			
0.2268	14512.81	4.0170	4.0171	0.8307	7.56	1.57	0.750			
0.2293	14673.41	4.0140	4.0140	0.8374	7.56	1.57	0.750			
0.2318	14834.15	4.0110	4.0111	0.8395	7.55	1.56	0.750			
0.2343	14992.07	4.0080	4.0080	0.8449	7.54	1.55	0.750			
0.2368	15155.16	4.0050	4.0050	0.8508	7.54	1.55	0.750			
0.2394	15320.85	4.0020	4.0020	0.8461	7.53	1.54	0.750			
0.2420	15486.22	3.9990	3.9991	0.8534	7.52	1.53	0.750			
0.2445	15649.44	3.9960	3.9961	0.8584	7.51	1.52	0.750			
0.2471	15813.08	3.9930	3.9930	0.8550	7.50	1.51	0.750			
0.2496	15975.97	3.9900	3.9900	0.8584	7.49	1.50	0.750			
0.2522	16140.98	3.9870	3.9871	0.8611	7.48	1.49	0.750			
0.2548	16308.80	3.9840	3.9840	0.8750	7.47	1.48	0.750			
0.2575	16477.94	3.9810	3.9811	0.8805	7.46	1.47	0.750			
0.2601	16646.86	3.9780	3.9778	0.8786	7.45	1.46	0.750			
0.2628	16816.14	3.9750	3.9751	0.8813	7.44	1.45	0.750			
0.2654	16987.09	3.9720	3.9720	0.8778	7.44	1.45	0.750			
0.2680	17152.19	3.9690	3.9690	0.8842	7.43	1.44	0.750			
0.2707	17321.82	3.9660	3.9661	0.8891	7.42	1.43	0.750			
0.2733	17490.25	3.9630	3.9626	0.8990	7.41	1.42	0.750			
0.2760	17666.90	3.9600	3.9601	0.9023	7.40	1.41	0.750			
0.2788	17841.10	3.9570	3.9571	0.9132	7.39	1.40	0.750			
0.2815	18019.08	3.9540	3.9541	0.9233	7.38	1.39	0.750			
0.2843	18194.99	3.9510	3.9511	0.9211	7.38	1.39	0.750			
0.2871	18373.14	3.9480	3.9479	0.9255	7.37	1.38	0.750			
0.2899	18552.16	3.9450	3.9451	0.9276	7.36	1.37	0.750			
0.2926	18728.83	3.9420	3.9421	0.9347	7.35	1.36	0.750			
0.2955	18909.78	3.9390	3.9390	0.9460	7.34	1.35	0.750			
0.2983	19091.06	3.9360	3.9358	0.9499	7.33	1.34	0.750			
0.3012	19276.29	3.9330	3.9330	0.9455	7.32	1.33	0.750			
0.3040	19455.00	3.9300	3.9301	0.9662	7.31	1.32	0.750			
0.3069	19643.18	3.9270	3.9271	0.9806	7.30	1.31	0.750			
0.3099	19830.80	3.9240	3.9240	0.9897	7.29	1.30	0.750			
0.3129	20024.07	3.9210	3.9211	0.9861	7.28	1.29	0.750			
0.3158	20213.40	3.9180	3.9183	0.9996	7.27	1.28	0.750			
0.3189	20406.81	3.9150	3.9151	1.0124	7.25	1.26	0.750			
0.3219	20600.12	3.9120	3.9120	1.0144	7.24	1.25	0.750			
0.3250	20798.43	3.9090	3.9089	1.0163	7.23	1.24	0.750			
0.3280	20993.70	3.9060	3.9062	1.0236	7.22	1.23	0.750			
0.3311	21193.11	3.9030	3.9032	1.0379	7.21	1.22	0.750			
0.3343	21395.16	3.9000	3.9000	1.0492	7.20	1.21	0.750			
0.3375	21598.39	3.8970	3.8969	1.0348	7.18	1.19	0.750			
0.3405	21793.27	3.8940	3.8940	1.0457	7.17	1.18	0.750			
0.3436	21992.50	3.8910	3.8912	1.0667	7.16	1.17	0.750			
0.3469	22199.94	3.8880	3.8881	1.0878	7.15	1.16	0.750			
0.3502	22409.73	3.8850	3.8850	1.0940	7.13	1.14	0.750			
0.3534	22619.31	3.8820	3.8821	1.1118	7.12	1.13	0.750			
0.3568	22836.75	3.8790	3.8792	1.1326	7.11	1.12	0.750			
0.3603	23057.82	3.8760	3.8758	1.1488	7.09	1.10	0.750			
0.3637	23276.67	3.8730	3.8729	1.1540	7.08	1.09	0.750			
0.3672	23499.23	3.8700	3.8702	1.1679	7.06	1.07	0.750			
0.3707	23726.83	3.8670	3.8669	1.1885	7.04	1.05	0.750			
0.3743	23958.29	3.8640	3.8639	1.1893	7.03	1.04	0.750			
0.3779	24186.56	3.8610	3.8610	1.2085	7.02	1.03	0.750			
0.3815	24418.40	3.8580	3.8582	1.2292	7.00	1.01	0.750			
0.3853	24660.03	3.8550	3.8547	1.2277	6.99	1.00	0.750			
0.3890	24892.81	3.8520	3.8522	1.2515	6.98	0.99	0.750			
0.3927	25135.51	3.8490	3.8491	1.2768	6.96	0.97	0.750			
0.3966	25382.54	3.8460	3.8461	1.2849	6.94	0.95	0.750			
0.4004	25624.05	3.8430	3.8431	1.2950	6.92	0.93	0.750			
0.4040	25856.41	3.8400	3.8405	1.3381	6.90	0.91	0.750			
0.4081	26121.54	3.8370	3.8352	1.3868	6.88	0.89	0.750	0.372	0.889	
0.4125	26398.19	3.8340	3.8345	1.4405	6.86	0.87	0.750			
0.4169	26678.92	3.8310	3.8315	1.4831	6.84	0.85	0.750			
0.4215	26978.91	3.8280	3.8282	1.5203	6.82	0.83	0.750			
0.4262	27274.44	3.8250	3.8249	1.4739	6.80	0.81	0.750			
0.4306	27556.96	3.8220	3.8223	1.5164	6.78	0.79	0.750			
0.4352	27850.28	3.8190	3.8191	1.5553	6.75	0.76	0.750			
0.4399	28156.40	3.8160	3.8163	1.5776	6.73	0.74	0.750			
0.4447	28461.33	3.8130	3.8131	1.6080	6.71	0.72	0.750			
0.4497	28778.04	3.8100	3.8099	1.6447	6.68	0.69	0.750			
0.4546	29093.66	3.8070	3.8068	1.6525	6.66	0.67	0.750			
0.4596	29411.49	3.8040	3.8041	1.6804	6.64	0.65	0.750			
0.4647	29741.69	3.8010	3.8010	1.7135	6.61	0.62	0.750			
0.4698	30069.40	3.7980	3.7981	1.7847	6.59	0.60	0.750			
0.4752	30414.01	3.7950	3.7949	1.8079	6.56	0.57	0.750			
0.4808	30768.84	3.7920	3.7919	1.8724	6.55	0.56	0.750			
0.4865	31134.19	3.7890	3.7891	1.8536	6.53	0.54	0.750			
0.4921	31491.52	3.7860	3.7860	1.8782	6.50	0.51	0.750			
0.4978	31858.71	3.7830	3.7828	1.8811	6.46	0.47	0.750			
0.5035	32224.96	3.7800	3.7798	1.9320	6.43	0.44	0.750			
0.5091	32584.38	3.7770	3.7772	1.9182	6.40	0.41	0.750			
0.5151	32968.75	3.7740	3.7739	1.9543	6.38	0.39	0.750			
0.5209	33339.94	3.7710	3.7709	1.9714	6.36	0.37	0.750			
0.5269	33723.16	3.7680	3.7685	2.0158	6.33	0.34	0.750			
0.5330	34112.41	3.7650	3.7649	2.0499	6.30	0.31	0.750			
0.5393	34517.03	3.7620	3.7623	2.0708	6.28	0.29	0.750			
0.5456	34920.04	3.7590	3.7592	2.0719	6.26	0.27	0.750			
0.5517	35308.18	3.7560	3.7557	2.0492	6.24	0.25	0.750			
0.5578	35696.86	3.7530	3.7527	2.1424	6.22	0.23	0.750			
0.5643	36114.95	3.7500	3.7504	2.1553	6.20	0.21	0.750			
0.5708	36529.03	3.7470	3.7472	2.1929	6.18	0.19	0.750			
0.5776	36965.07	3.7440	3.7437	2.2653	6.15	0.16	0.750			
0.5845	37408.40	3.7410	3.7409	2.3889	6.12	0.13	0.750			
0.5918	37876.18	3.7380	3.7377	2.4817	6.09	0.10	0.750			
0.5992	38351.86	3.7350	3.7350	2.4904	6.07	0.08	0.750			
0.6070	38846.86	3.7320	3.7321	2.5723	6.06	0.07	0.750			
0.6148	39345.32	3.7290	3.7288	2.5423	6.04	0.05	0.750			
0.6223	39825.95	3.7260	3.7258	2.4914	6.01	0.02	0.750			
0.6297	40299.92	3.7230	3.7227	2.5103	6.00	0.01	0.750			
0.6372	40780.09	3.7200	3.7201	2.3956	5.99	-0.00	0.750			
0.6445	41249.66	3.7170	3.7172	2.3184	5.96	-0.03	0.750			
0.6510	41661.11	3.7140	3.7139	2.0711	5.95	-0.04	0.750			
0.6568	42033.98	3.7110	3.7111	1.8935	5.95	-0.04	0.750			
0.6621	42376.72	3.7080	3.7076	1.6861	5.95	-0.04	0.750			
0.6670	42686.59	3.7050	3.7054	1.5220	5.95	-0.04	0.750			
0.6713	42963.26	3.7020	3.7021	1.3822	5.95	-0.04	0.750			
0.6752	43212.33	3.6990	3.6989	1.2507	5.95	-0.04	0.750			
0.6785	43423.07	3.6960	3.6961	1.1084	5.95	-0.04	0.750			
0.6816	43625.41	3.6930	3.6932	1.0393	5.95	-0.04	0.750			
0.6846	43815.09	3.6900	3.6901	0.9889	5.95	-0.04	0.750			
0.6875	43998.69	3.6870	3.6871	0.9422	5.95	-0.04	0.750			
0.6902	44173.08	3.6840	3.6842	0.8982	5.95	-0.04	0.750			
0.6929	44343.10	3.6810	3.6811	0.8692	5.94	-0.05	0.750			
0.6955	44510.85	3.6780	3.6780	0.8443	5.94	-0.05	0.750			
0.6979	44666.42	3.6750	3.6747	0.7997	5.94	-0.05	0.750			
0.7003	44818.07	3.6720	3.6720	0.7659	5.94	-0.05	0.750			
0.7025	44960.74	3.6690	3.6691	0.7295	5.95	-0.04	0.750			
0.7047	45098.93	3.6660	3.6660	0.6942	5.95	-0.04	0.750			
0.7067	45229.82	3.6630	3.6630	0.6579	5.95	-0.04	0.750			
0.7086	45350.47	3.6600	3.6599	0.6172	5.96	-0.03	0.750			
0.7104	45465.91	3.6570	3.6570	0.5781	5.96	-0.03	0.750			
0.7121	45574.11	3.6540	3.6540	0.5390	5.96	-0.03	0.750			
0.7136	45672.73	3.6510	3.6511	0.5016	5.97	-0.02	0.750			
0.7151	45764.95	3.6480	3.6482	0.4631	5.97	-0.02	0.750			
0.7164	45850.66	3.6450	3.6448	0.4279	5.97	-0.02	0.750			
0.7176	45928.80	3.6420	3.6419	0.3892	5.98	-0.01	0.750			
0.7188	46000.24	3.6390	3.6391	0.3540	5.98	-0.01	0.750			
0.7198	46066.07	3.6360	3.6361	0.3214	5.98	-0.01	0.750			
0.7207	46123.85	3.6330	3.6330	0.2856	5.98	-0.01	0.750			
0.7215	46174.84	3.6300	3.6298	0.2445	5.99	-0.00	0.750			
0.7222	46219.04	3.6270	3.6268	0.2101	5.99	-0.00	0.750			
0.7227	46255.98	3.6240	3.6241	0.1730	5.99	-0.00	0.750			
0.7232	46286.21	3.6210	3.6213	0.1351	5.99	-0.00	0.750			
0.7236	46309.89	3.6180	3.6183	0.0946	5.99	0.00	0.750			
0.7238	46323.85	3.6150	3.6154	0.0509	5.99	0.00	0.750			
0.7239	46329.80	3.6120	3.6128	0.0008	5.99	0.00	0.750			
