Ah_balance (normalized)	Ah_balance (mAh)	Voltage - fit (V)	Voltage -  interpolate (V)	dQ/dV (1/V)	Temperature (°C)	Temperature - diff (°C)	Current (C)	R_DC 0ms (mOhm)	R_DC 50ms (mOhm)	R_DC 50 ms PEC (mOhm)
0.1815	11616.62	4.0810	4.0810	0.8068	7.22	1.24	0.750			
0.1839	11772.74	4.0780	4.0780	0.7958	7.22	1.24	0.750			
0.1862	11917.12	4.0750	4.0750	0.7792	7.21	1.23	0.750			
0.1885	12063.29	4.0720	4.0721	0.7767	7.20	1.22	0.750			
0.1908	12213.56	4.0690	4.0691	0.7835	7.19	1.21	0.750			
0.1932	12362.93	4.0660	4.0659	0.7918	7.19	1.21	0.750			
0.1956	12517.27	4.0630	4.0631	0.7983	7.18	1.20	0.750			
0.1980	12672.59	4.0600	4.0601	0.8046	7.18	1.20	0.750			
0.2004	12828.68	4.0570	4.0569	0.8090	7.18	1.20	0.750			
0.2029	12983.62	4.0540	4.0541	0.8014	7.17	1.19	0.750			
0.2053	13137.41	4.0510	4.0510	0.8019	7.17	1.19	0.750			
0.2077	13292.28	4.0480	4.0480	0.8004	7.16	1.18	0.750			
0.2101	13445.00	4.0450	4.0451	0.7947	7.15	1.17	0.750			
0.2124	13595.97	4.0420	4.0420	0.8044	7.15	1.17	0.750			
0.2148	13749.13	4.0390	4.0391	0.8118	7.14	1.16	0.750			
0.2173	13906.64	4.0360	4.0357	0.8136	7.13	1.15	0.750			
0.2198	14064.11	4.0330	4.0331	0.8238	7.12	1.14	0.750			
0.2222	14223.78	4.0300	4.0301	0.8206	7.11	1.13	0.750			
0.2247	14382.55	4.0270	4.0269	0.8277	7.11	1.13	0.750			
0.2272	14539.83	4.0240	4.0240	0.8238	7.10	1.12	0.750			
0.2296	14696.96	4.0210	4.0207	0.8251	7.09	1.11	0.750			
0.2321	14855.73	4.0180	4.0181	0.8301	7.09	1.11	0.750			
0.2346	15016.21	4.0150	4.0151	0.8388	7.08	1.10	0.750			
0.2371	15177.43	4.0120	4.0120	0.8414	7.08	1.10	0.750			
0.2397	15340.21	4.0090	4.0090	0.8423	7.07	1.09	0.750			
0.2422	15503.32	4.0060	4.0058	0.8430	7.07	1.09	0.750			
0.2448	15666.14	4.0030	4.0031	0.8463	7.06	1.08	0.750			
0.2473	15828.55	4.0000	4.0000	0.8463	7.05	1.07	0.750			
0.2498	15989.75	3.9970	3.9970	0.8494	7.03	1.05	0.750			
0.2524	16151.94	3.9940	3.9940	0.8469	7.02	1.04	0.750			
0.2549	16315.79	3.9910	3.9909	0.8525	7.01	1.03	0.750			
0.2575	16478.83	3.9880	3.9880	0.8605	7.01	1.03	0.750			
0.2601	16646.13	3.9850	3.9850	0.8621	7.00	1.02	0.750			
0.2627	16810.56	3.9820	3.9820	0.8628	7.00	1.02	0.750			
0.2652	16975.25	3.9790	3.9791	0.8646	6.99	1.01	0.750			
0.2678	17140.98	3.9760	3.9762	0.8705	6.99	1.01	0.750			
0.2705	17311.18	3.9730	3.9730	0.8764	6.98	1.00	0.750			
0.2731	17479.94	3.9700	3.9700	0.8812	6.97	0.99	0.750			
0.2758	17648.31	3.9670	3.9670	0.8875	6.96	0.98	0.750			
0.2784	17819.68	3.9640	3.9641	0.8926	6.95	0.97	0.750			
0.2811	17992.86	3.9610	3.9610	0.8986	6.95	0.97	0.750			
0.2838	18166.14	3.9580	3.9579	0.8957	6.94	0.96	0.750			
0.2865	18336.14	3.9550	3.9551	0.9057	6.93	0.95	0.750			
0.2892	18510.68	3.9520	3.9521	0.9165	6.93	0.95	0.750			
0.2920	18685.92	3.9490	3.9487	0.9221	6.92	0.94	0.750			
0.2947	18863.92	3.9460	3.9460	0.9266	6.91	0.93	0.750			
0.2976	19044.37	3.9430	3.9431	0.9356	6.90	0.92	0.750			
0.3004	19226.30	3.9400	3.9400	0.9491	6.89	0.91	0.750			
0.3032	19407.78	3.9370	3.9371	0.9512	6.88	0.90	0.750			
0.3061	19592.38	3.9340	3.9340	0.9506	6.87	0.89	0.750			
0.3090	19775.08	3.9310	3.9310	0.9611	6.86	0.88	0.750			
0.3119	19959.72	3.9280	3.9280	0.9720	6.85	0.87	0.750			
0.3148	20148.48	3.9250	3.9251	0.9822	6.84	0.86	0.750			
0.3178	20337.48	3.9220	3.9219	0.9867	6.83	0.85	0.750			
0.3207	20525.47	3.9190	3.9191	0.9893	6.82	0.84	0.750			
0.3237	20715.03	3.9160	3.9162	1.0013	6.81	0.83	0.750			
0.3267	20909.67	3.9130	3.9129	1.0129	6.80	0.82	0.750			
0.3297	21103.82	3.9100	3.9097	1.0217	6.79	0.81	0.750			
0.3328	21301.68	3.9070	3.9071	1.0231	6.78	0.80	0.750			
0.3359	21500.15	3.9040	3.9041	1.0325	6.77	0.79	0.750			
0.3391	21701.44	3.9010	3.9010	1.0436	6.76	0.78	0.750			
0.3422	21900.25	3.8980	3.8974	1.0437	6.75	0.77	0.750			
0.3453	22098.97	3.8950	3.8950	1.0510	6.74	0.76	0.750			
0.3485	22301.07	3.8920	3.8920	1.0705	6.73	0.75	0.750			
0.3517	22506.64	3.8890	3.8891	1.0901	6.71	0.73	0.750			
0.3551	22726.14	3.8860	3.8857	1.0862	6.70	0.72	0.750			
0.3583	22929.67	3.8830	3.8831	1.1051	6.69	0.71	0.750			
0.3616	23141.68	3.8800	3.8802	1.1202	6.67	0.69	0.750			
0.3650	23358.25	3.8770	3.8769	1.1438	6.66	0.68	0.750			
0.3684	23579.76	3.8740	3.8739	1.1454	6.65	0.67	0.750			
0.3719	23802.30	3.8710	3.8713	1.1594	6.64	0.66	0.750			
0.3754	24028.50	3.8680	3.8682	1.1785	6.62	0.64	0.750			
0.3791	24259.70	3.8650	3.8647	1.1946	6.61	0.63	0.750			
0.3825	24482.71	3.8620	3.8620	1.1953	6.60	0.62	0.750			
0.3861	24710.75	3.8590	3.8590	1.2180	6.59	0.61	0.750			
0.3898	24947.90	3.8560	3.8560	1.2375	6.58	0.60	0.750			
0.3936	25192.06	3.8530	3.8530	1.2706	6.56	0.58	0.750			
0.3975	25438.45	3.8500	3.8500	1.2845	6.55	0.57	0.750			
0.4014	25686.59	3.8470	3.8470	1.2974	6.53	0.55	0.750			
0.4052	25931.80	3.8440	3.8440	1.3278	6.51	0.53	0.750			
0.4092	26188.25	3.8410	3.8411	1.3571	6.50	0.52	0.750			
0.4133	26451.81	3.8380	3.8381	1.3901	6.50	0.52	0.750	0.404	0.949	
0.4176	26726.27	3.8350	3.8346	1.4227	6.49	0.51	0.750			
0.4219	27002.26	3.8320	3.8322	1.4605	6.47	0.49	0.750			
0.4265	27293.97	3.8290	3.8292	1.4977	6.45	0.47	0.750			
0.4310	27581.26	3.8260	3.8261	1.5095	6.43	0.45	0.750			
0.4354	27865.60	3.8230	3.8230	1.5080	6.41	0.43	0.750			
0.4400	28160.65	3.8200	3.8201	1.5222	6.40	0.42	0.750			
0.4446	28456.90	3.8170	3.8170	1.5610	6.38	0.40	0.750			
0.4494	28760.01	3.8140	3.8135	1.5831	6.37	0.39	0.750			
0.4541	29059.31	3.8110	3.8109	1.6211	6.35	0.37	0.750			
0.4591	29379.70	3.8080	3.8079	1.6517	6.34	0.36	0.750			
0.4641	29701.79	3.8050	3.8046	1.7162	6.32	0.34	0.750			
0.4693	30032.46	3.8020	3.8019	1.7258	6.30	0.32	0.750			
0.4746	30375.51	3.7990	3.7988	1.7736	6.29	0.31	0.750			
0.4800	30722.83	3.7960	3.7960	1.8181	6.27	0.29	0.750			
0.4854	31067.05	3.7930	3.7931	1.8257	6.25	0.27	0.750			
0.4910	31422.11	3.7900	3.7899	1.8490	6.23	0.25	0.750			
0.4967	31789.22	3.7870	3.7871	1.9046	6.22	0.24	0.750			
0.5025	32157.86	3.7840	3.7839	1.9543	6.20	0.22	0.750			
0.5085	32541.89	3.7810	3.7808	1.9658	6.18	0.20	0.750			
0.5144	32921.35	3.7780	3.7782	1.9979	6.16	0.18	0.750			
0.5204	33308.64	3.7750	3.7749	2.0636	6.14	0.16	0.750			
0.5268	33715.15	3.7720	3.7722	2.0340	6.12	0.14	0.750			
0.5330	34113.57	3.7690	3.7690	2.0524	6.10	0.12	0.750			
0.5391	34501.73	3.7660	3.7658	2.0581	6.08	0.10	0.750			
0.5452	34893.50	3.7630	3.7633	2.0719	6.07	0.09	0.750			
0.5513	35285.53	3.7600	3.7599	2.0981	6.06	0.08	0.750			
0.5579	35705.94	3.7570	3.7568	2.1444	6.04	0.06	0.750			
0.5644	36123.15	3.7540	3.7541	2.1978	6.02	0.04	0.750			
0.5709	36539.29	3.7510	3.7510	2.2204	6.00	0.02	0.750			
0.5777	36970.58	3.7480	3.7480	2.2591	5.98	0.00	0.750			
0.5845	37406.90	3.7450	3.7451	2.3510	5.97	-0.01	0.750			
0.5917	37870.76	3.7420	3.7419	2.3612	5.95	-0.03	0.750			
0.5988	38325.03	3.7390	3.7392	2.4025	5.94	-0.04	0.750			
0.6062	38799.92	3.7360	3.7358	2.4779	5.93	-0.05	0.750			
0.6136	39270.01	3.7330	3.7329	2.5194	5.92	-0.06	0.750			
0.6215	39777.27	3.7300	3.7299	2.6215	5.90	-0.08	0.750			
0.6293	40275.53	3.7270	3.7271	2.6550	5.89	-0.09	0.750			
0.6374	40794.90	3.7240	3.7240	2.6239	5.88	-0.10	0.750			
0.6453	41296.06	3.7210	3.7212	2.5358	5.87	-0.11	0.750			
0.6528	41780.24	3.7180	3.7179	2.4513	5.87	-0.11	0.750			
0.6600	42238.64	3.7150	3.7149	2.3040	5.87	-0.11	0.750			
0.6669	42679.89	3.7120	3.7119	2.1636	5.87	-0.11	0.750			
0.6730	43070.78	3.7090	3.7090	1.9368	5.87	-0.11	0.750			
0.6784	43420.57	3.7060	3.7060	1.7224	5.87	-0.11	0.750			
0.6832	43723.45	3.7030	3.7032	1.5346	5.87	-0.11	0.750			
0.6875	43998.63	3.7000	3.6999	1.3577	5.88	-0.10	0.750			
0.6912	44236.94	3.6970	3.6970	1.2205	5.88	-0.10	0.750			
0.6945	44449.66	3.6940	3.6941	1.0883	5.88	-0.10	0.750			
0.6976	44646.14	3.6910	3.6911	1.0081	5.88	-0.10	0.750			
0.7004	44823.97	3.6880	3.6879	0.9359	5.89	-0.09	0.750			
0.7031	44996.57	3.6850	3.6849	0.8841	5.89	-0.09	0.750			
0.7056	45159.65	3.6820	3.6821	0.8424	5.89	-0.09	0.750			
0.7081	45320.76	3.6790	3.6790	0.8148	5.90	-0.08	0.750			
0.7105	45472.66	3.6760	3.6760	0.7731	5.91	-0.07	0.750			
0.7128	45617.29	3.6730	3.6730	0.7375	5.92	-0.06	0.750			
0.7149	45755.92	3.6700	3.6700	0.6976	5.92	-0.06	0.750			
0.7170	45886.53	3.6670	3.6668	0.6600	5.93	-0.05	0.750			
0.7189	46009.34	3.6640	3.6641	0.6233	5.94	-0.04	0.750			
0.7207	46125.19	3.6610	3.6610	0.5830	5.94	-0.04	0.750			
0.7224	46234.03	3.6580	3.6579	0.5463	5.95	-0.03	0.750			
0.7240	46336.23	3.6550	3.6551	0.5058	5.96	-0.02	0.750			
0.7254	46428.57	3.6520	3.6519	0.4623	5.96	-0.02	0.750			
0.7268	46513.67	3.6490	3.6490	0.4243	5.97	-0.01	0.750			
0.7280	46590.35	3.6460	3.6460	0.3827	5.97	-0.01	0.750			
0.7290	46659.17	3.6430	3.6430	0.3448	5.98	-0.00	0.750			
0.7300	46721.71	3.6400	3.6399	0.3095	5.98	0.00	0.750			
0.7309	46776.87	3.6370	3.6371	0.2738	5.98	0.00	0.750			
0.7317	46827.53	3.6340	3.6339	0.2389	5.99	0.01	0.750			
0.7323	46869.99	3.6310	3.6310	0.2024	5.99	0.01	0.750			
0.7329	46906.08	3.6280	3.6280	0.1663	5.99	0.01	0.750			
0.7333	46933.51	3.6250	3.6253	0.1277	5.99	0.01	0.750			
0.7337	46956.18	3.6220	3.6229	0.0896	6.00	0.02	0.750			
0.7339	46969.93	3.6190	3.6200	0.0484	6.00	0.02	0.750			
0.7340	46975.27	3.6160	3.6185	0.0072	6.00	0.02	0.750			
