Ah_balance (normalized)	Ah_balance (mAh)	Voltage - fit (V)	Voltage -  interpolate (V)	dQ/dV (1/V)	Temperature (°C)	Temperature - diff (°C)	Current (C)	R_DC 0ms (mOhm)	R_DC 50ms (mOhm)	R_DC 50 ms PEC (mOhm)
0.1798	11506.35	4.0810	4.0810	0.7680	7.49	1.50	0.750			
0.1821	11654.38	4.0780	4.0780	0.7707	7.48	1.49	0.750			
0.1844	11802.09	4.0750	4.0749	0.7664	7.47	1.48	0.750			
0.1867	11947.86	4.0720	4.0720	0.7664	7.46	1.47	0.750			
0.1890	12093.30	4.0690	4.0691	0.7698	7.46	1.47	0.750			
0.1913	12242.01	4.0660	4.0655	0.7786	7.45	1.46	0.750			
0.1936	12392.31	4.0630	4.0630	0.7777	7.45	1.46	0.750			
0.1960	12544.35	4.0600	4.0600	0.7729	7.44	1.45	0.750			
0.1983	12692.94	4.0570	4.0571	0.7810	7.44	1.45	0.750			
0.2007	12842.95	4.0540	4.0539	0.7818	7.43	1.44	0.750			
0.2030	12990.18	4.0510	4.0509	0.7820	7.43	1.44	0.750			
0.2053	13140.27	4.0480	4.0481	0.7872	7.43	1.44	0.750			
0.2077	13293.79	4.0450	4.0450	0.7878	7.42	1.43	0.750			
0.2101	13445.97	4.0420	4.0421	0.7969	7.42	1.43	0.750			
0.2125	13599.89	4.0390	4.0390	0.8040	7.42	1.43	0.750			
0.2149	13751.83	4.0360	4.0361	0.8041	7.41	1.42	0.750			
0.2173	13907.59	4.0330	4.0330	0.8079	7.41	1.42	0.750			
0.2197	14063.66	4.0300	4.0301	0.8090	7.40	1.41	0.750			
0.2222	14220.34	4.0270	4.0271	0.8155	7.40	1.41	0.750			
0.2246	14377.32	4.0240	4.0240	0.8191	7.40	1.41	0.750			
0.2271	14534.26	4.0210	4.0210	0.8194	7.39	1.40	0.750			
0.2296	14691.22	4.0180	4.0180	0.8211	7.39	1.40	0.750			
0.2321	14851.72	4.0150	4.0150	0.8185	7.38	1.39	0.750			
0.2345	15010.21	4.0120	4.0121	0.8262	7.38	1.39	0.750			
0.2370	15167.78	4.0090	4.0090	0.8268	7.38	1.39	0.750			
0.2395	15325.45	4.0060	4.0061	0.8269	7.37	1.38	0.750			
0.2419	15483.99	4.0030	4.0030	0.8305	7.37	1.38	0.750			
0.2444	15644.21	4.0000	4.0000	0.8359	7.36	1.37	0.750			
0.2470	15805.24	3.9970	3.9970	0.8448	7.35	1.36	0.750			
0.2495	15967.27	3.9940	3.9940	0.8521	7.34	1.35	0.750			
0.2520	16130.64	3.9910	3.9911	0.8562	7.34	1.35	0.750			
0.2546	16296.51	3.9880	3.9881	0.8668	7.33	1.34	0.750			
0.2573	16466.01	3.9850	3.9848	0.8688	7.32	1.33	0.750			
0.2599	16633.52	3.9820	3.9822	0.8747	7.31	1.32	0.750			
0.2625	16802.20	3.9790	3.9790	0.8767	7.30	1.31	0.750			
0.2652	16970.05	3.9760	3.9761	0.8801	7.29	1.30	0.750			
0.2678	17140.04	3.9730	3.9730	0.8830	7.29	1.30	0.750			
0.2704	17308.67	3.9700	3.9700	0.8789	7.28	1.29	0.750			
0.2731	17476.15	3.9670	3.9670	0.8848	7.28	1.29	0.750			
0.2757	17646.38	3.9640	3.9642	0.8889	7.27	1.28	0.750			
0.2784	17816.95	3.9610	3.9606	0.8961	7.27	1.28	0.750			
0.2811	17992.91	3.9580	3.9580	0.8965	7.26	1.27	0.750			
0.2838	18164.36	3.9550	3.9550	0.8996	7.25	1.26	0.750			
0.2865	18336.72	3.9520	3.9521	0.9048	7.25	1.26	0.750			
0.2893	18512.16	3.9490	3.9491	0.9150	7.24	1.25	0.750			
0.2919	18684.29	3.9460	3.9458	0.9127	7.23	1.24	0.750			
0.2947	18860.86	3.9430	3.9430	0.9227	7.22	1.23	0.750			
0.2975	19038.57	3.9400	3.9401	0.9324	7.21	1.22	0.750			
0.3003	19220.45	3.9370	3.9370	0.9428	7.20	1.21	0.750			
0.3032	19402.73	3.9340	3.9339	0.9456	7.19	1.20	0.750			
0.3060	19585.22	3.9310	3.9311	0.9482	7.18	1.19	0.750			
0.3089	19767.73	3.9280	3.9280	0.9570	7.18	1.19	0.750			
0.3117	19951.98	3.9250	3.9250	0.9654	7.17	1.18	0.750			
0.3146	20136.40	3.9220	3.9220	0.9696	7.16	1.17	0.750			
0.3176	20324.79	3.9190	3.9191	0.9788	7.15	1.16	0.750			
0.3205	20514.58	3.9160	3.9160	0.9880	7.14	1.15	0.750			
0.3235	20705.47	3.9130	3.9130	0.9955	7.13	1.14	0.750			
0.3265	20896.75	3.9100	3.9101	1.0055	7.12	1.13	0.750			
0.3296	21092.24	3.9070	3.9070	1.0051	7.11	1.12	0.750			
0.3326	21283.78	3.9040	3.9041	1.0153	7.10	1.11	0.750			
0.3356	21478.19	3.9010	3.9010	1.0265	7.09	1.10	0.750			
0.3387	21676.00	3.8980	3.8981	1.0414	7.08	1.09	0.750			
0.3418	21877.55	3.8950	3.8948	1.0532	7.07	1.08	0.750			
0.3450	22080.42	3.8920	3.8920	1.0686	7.06	1.07	0.750			
0.3483	22288.34	3.8890	3.8890	1.0825	7.05	1.06	0.750			
0.3516	22500.62	3.8860	3.8860	1.0966	7.05	1.06	0.750			
0.3549	22713.19	3.8830	3.8830	1.0879	7.04	1.05	0.750			
0.3582	22922.46	3.8800	3.8801	1.1043	7.03	1.04	0.750			
0.3614	23132.11	3.8770	3.8771	1.1195	7.02	1.03	0.750			
0.3648	23348.01	3.8740	3.8739	1.1344	7.00	1.01	0.750			
0.3682	23565.94	3.8710	3.8711	1.1415	6.99	1.00	0.750			
0.3717	23785.86	3.8680	3.8681	1.1625	6.98	0.99	0.750			
0.3752	24010.89	3.8650	3.8651	1.1816	6.96	0.97	0.750			
0.3788	24244.78	3.8620	3.8616	1.1920	6.95	0.96	0.750			
0.3823	24468.77	3.8590	3.8591	1.2097	6.94	0.95	0.750			
0.3860	24706.74	3.8560	3.8560	1.2206	6.93	0.94	0.750			
0.3898	24944.33	3.8530	3.8530	1.2409	6.91	0.92	0.750			
0.3934	25179.09	3.8500	3.8502	1.2779	6.90	0.91	0.750			
0.3973	25426.12	3.8470	3.8472	1.3101	6.89	0.90	0.750			
0.4013	25681.72	3.8440	3.8440	1.3540	6.88	0.89	0.750	0.386	0.891	
0.4054	25947.39	3.8410	3.8412	1.3807	6.86	0.87	0.750			
0.4096	26214.89	3.8380	3.8381	1.4004	6.84	0.85	0.750			
0.4141	26499.67	3.8350	3.8349	1.4248	6.82	0.83	0.750			
0.4182	26763.47	3.8320	3.8320	1.4292	6.80	0.81	0.750			
0.4224	27034.75	3.8290	3.8291	1.4429	6.79	0.80	0.750			
0.4268	27315.85	3.8260	3.8260	1.4595	6.78	0.79	0.750			
0.4312	27594.10	3.8230	3.8232	1.5026	6.76	0.77	0.750			
0.4356	27880.98	3.8200	3.8199	1.5353	6.75	0.76	0.750			
0.4404	28184.65	3.8170	3.8169	1.5569	6.73	0.74	0.750			
0.4451	28486.78	3.8140	3.8143	1.5656	6.71	0.72	0.750			
0.4498	28788.41	3.8110	3.8112	1.6263	6.69	0.70	0.750			
0.4547	29100.58	3.8080	3.8077	1.6477	6.67	0.68	0.750			
0.4596	29413.48	3.8050	3.8050	1.6546	6.65	0.66	0.750			
0.4648	29747.20	3.8020	3.8019	1.6942	6.63	0.64	0.750			
0.4700	30080.97	3.7990	3.7991	1.7205	6.62	0.63	0.750			
0.4752	30409.60	3.7960	3.7961	1.7427	6.60	0.61	0.750			
0.4803	30738.82	3.7930	3.7929	1.7704	6.58	0.59	0.750			
0.4856	31079.71	3.7900	3.7899	1.8078	6.56	0.57	0.750			
0.4911	31430.02	3.7870	3.7868	1.8416	6.53	0.54	0.750			
0.4967	31790.27	3.7840	3.7839	1.8402	6.51	0.52	0.750			
0.5023	32145.05	3.7810	3.7811	1.8591	6.49	0.50	0.750			
0.5080	32512.64	3.7780	3.7781	1.8694	6.46	0.47	0.750			
0.5136	32869.55	3.7750	3.7750	1.8918	6.44	0.45	0.750			
0.5192	33227.89	3.7720	3.7722	1.9245	6.42	0.43	0.750			
0.5251	33603.95	3.7690	3.7690	1.9494	6.40	0.41	0.750			
0.5309	33974.67	3.7660	3.7659	1.9622	6.38	0.39	0.750			
0.5368	34352.22	3.7630	3.7630	1.9649	6.36	0.37	0.750			
0.5427	34732.12	3.7600	3.7602	1.9934	6.33	0.34	0.750			
0.5486	35112.13	3.7570	3.7572	2.0780	6.31	0.32	0.750			
0.5551	35524.88	3.7540	3.7538	2.1113	6.29	0.30	0.750			
0.5615	35933.74	3.7510	3.7511	2.1104	6.27	0.28	0.750			
0.5680	36349.61	3.7480	3.7481	2.1481	6.24	0.25	0.750			
0.5742	36747.81	3.7450	3.7450	2.1749	6.22	0.23	0.750			
0.5810	37181.26	3.7420	3.7420	2.2621	6.19	0.20	0.750			
0.5880	37629.82	3.7390	3.7390	2.3012	6.16	0.17	0.750			
0.5950	38078.41	3.7360	3.7363	2.3419	6.14	0.15	0.750			
0.6020	38526.65	3.7330	3.7329	2.3962	6.12	0.13	0.750			
0.6093	38996.71	3.7300	3.7299	2.4071	6.10	0.11	0.750			
0.6169	39480.27	3.7270	3.7269	2.4432	6.08	0.09	0.750			
0.6240	39937.09	3.7240	3.7239	2.4348	6.06	0.07	0.750			
0.6314	40409.48	3.7210	3.7209	2.3035	6.04	0.05	0.750			
0.6380	40830.47	3.7180	3.7185	2.1817	6.02	0.03	0.750			
0.6444	41244.68	3.7150	3.7150	1.9650	6.01	0.02	0.750			
0.6500	41602.92	3.7120	3.7119	1.7507	6.00	0.01	0.750			
0.6549	41915.17	3.7090	3.7096	1.5471	6.00	0.01	0.750			
0.6594	42202.37	3.7060	3.7059	1.4116	6.00	0.01	0.750			
0.6632	42443.13	3.7030	3.7030	1.2686	5.99	0.00	0.750			
0.6665	42657.47	3.7000	3.6999	1.1370	5.99	-0.00	0.750			
0.6698	42868.75	3.6970	3.6969	1.0604	5.98	-0.01	0.750			
0.6728	43058.76	3.6940	3.6941	0.9929	5.98	-0.01	0.750			
0.6756	43241.51	3.6910	3.6911	0.9468	5.97	-0.02	0.750			
0.6784	43417.06	3.6880	3.6877	0.9035	5.97	-0.02	0.750			
0.6810	43586.53	3.6850	3.6851	0.8640	5.97	-0.02	0.750			
0.6836	43750.70	3.6820	3.6821	0.8228	5.97	-0.02	0.750			
0.6860	43906.10	3.6790	3.6790	0.8000	5.97	-0.02	0.750			
0.6884	44056.77	3.6760	3.6760	0.7674	5.97	-0.02	0.750			
0.6906	44196.51	3.6730	3.6728	0.7252	5.97	-0.02	0.750			
0.6927	44334.15	3.6700	3.6701	0.6923	5.97	-0.02	0.750			
0.6948	44465.05	3.6670	3.6671	0.6600	5.98	-0.01	0.750			
0.6967	44589.78	3.6640	3.6640	0.6235	5.98	-0.01	0.750			
0.6986	44708.06	3.6610	3.6609	0.5841	5.98	-0.01	0.750			
0.7002	44811.31	3.6580	3.6581	0.5467	5.98	-0.01	0.750			
0.7018	44914.54	3.6550	3.6551	0.5170	5.99	-0.00	0.750			
0.7033	45010.96	3.6520	3.6517	0.4826	5.99	-0.00	0.750			
0.7047	45100.96	3.6490	3.6489	0.4445	5.99	0.00	0.750			
0.7060	45183.12	3.6460	3.6462	0.4076	5.99	0.00	0.750			
0.7072	45258.34	3.6430	3.6430	0.3697	6.00	0.01	0.750			
0.7082	45326.22	3.6400	3.6398	0.3326	6.00	0.01	0.750			
0.7091	45383.53	3.6370	3.6370	0.2902	6.00	0.01	0.750			
0.7100	45437.72	3.6340	3.6340	0.2551	6.00	0.01	0.750			
0.7107	45484.02	3.6310	3.6309	0.2204	6.00	0.01	0.750			
0.7113	45523.15	3.6280	3.6280	0.1825	6.00	0.01	0.750			
0.7118	45554.56	3.6250	3.6252	0.1433	6.00	0.01	0.750			
0.7122	45579.32	3.6220	3.6223	0.1029	6.00	0.01	0.750			
0.7124	45594.99	3.6190	3.6199	0.0603	6.00	0.01	0.750			
0.7125	45602.51	3.6160	3.6177	0.0103	6.00	0.01	0.750			
