Ah_balance (normalized)	Ah_balance (mAh)	Voltage - fit (V)	Voltage -  interpolate (V)	dQ/dV (1/V)	Temperature (°C)	Temperature - diff (°C)	Current (C)	R_DC 0ms (mOhm)	R_DC 50ms (mOhm)	R_DC 50 ms PEC (mOhm)
0.1767	11307.24	4.0820	4.0820	0.7846	7.37	1.40	0.750			
0.1790	11457.53	4.0790	4.0789	0.7773	7.36	1.39	0.750			
0.1813	11603.47	4.0760	4.0761	0.7683	7.36	1.39	0.750			
0.1836	11749.80	4.0730	4.0731	0.7708	7.35	1.38	0.750			
0.1859	11898.05	4.0700	4.0700	0.7715	7.34	1.37	0.750			
0.1882	12045.72	4.0670	4.0670	0.7731	7.34	1.37	0.750			
0.1905	12193.21	4.0640	4.0641	0.7698	7.33	1.36	0.750			
0.1929	12343.33	4.0610	4.0611	0.7766	7.33	1.36	0.750			
0.1952	12490.86	4.0580	4.0579	0.7805	7.32	1.35	0.750			
0.1975	12639.71	4.0550	4.0552	0.7781	7.32	1.35	0.750			
0.1998	12789.75	4.0520	4.0515	0.7844	7.31	1.34	0.750			
0.2022	12941.94	4.0490	4.0491	0.7926	7.30	1.33	0.750			
0.2046	13097.45	4.0460	4.0460	0.7861	7.30	1.33	0.750			
0.2070	13247.03	4.0430	4.0430	0.7972	7.29	1.32	0.750			
0.2094	13399.65	4.0400	4.0400	0.7965	7.28	1.31	0.750			
0.2117	13550.45	4.0370	4.0370	0.7961	7.27	1.30	0.750			
0.2141	13705.03	4.0340	4.0341	0.8025	7.27	1.30	0.750			
0.2165	13858.64	4.0310	4.0310	0.8072	7.26	1.29	0.750			
0.2190	14014.91	4.0280	4.0280	0.8086	7.26	1.29	0.750			
0.2214	14171.40	4.0250	4.0250	0.8186	7.26	1.29	0.750			
0.2238	14324.73	4.0220	4.0220	0.8152	7.25	1.28	0.750			
0.2263	14484.39	4.0190	4.0189	0.8259	7.25	1.28	0.750			
0.2288	14645.98	4.0160	4.0159	0.8180	7.24	1.27	0.750			
0.2313	14801.85	4.0130	4.0131	0.8222	7.24	1.27	0.750			
0.2337	14959.51	4.0100	4.0101	0.8238	7.23	1.26	0.750			
0.2362	15115.67	4.0070	4.0071	0.8293	7.22	1.25	0.750			
0.2387	15274.12	4.0040	4.0041	0.8359	7.22	1.25	0.750			
0.2412	15437.91	4.0010	4.0009	0.8345	7.21	1.24	0.750			
0.2437	15599.02	3.9980	3.9980	0.8452	7.21	1.24	0.750			
0.2463	15763.61	3.9950	3.9951	0.8490	7.20	1.23	0.750			
0.2488	15926.26	3.9920	3.9922	0.8488	7.19	1.22	0.750			
0.2514	16090.27	3.9890	3.9891	0.8517	7.19	1.22	0.750			
0.2539	16251.70	3.9860	3.9860	0.8457	7.18	1.21	0.750			
0.2565	16415.70	3.9830	3.9830	0.8568	7.17	1.20	0.750			
0.2591	16582.63	3.9800	3.9801	0.8657	7.16	1.19	0.750			
0.2617	16747.20	3.9770	3.9768	0.8619	7.15	1.18	0.750			
0.2643	16913.08	3.9740	3.9741	0.8712	7.15	1.18	0.750			
0.2669	17080.72	3.9710	3.9710	0.8704	7.14	1.17	0.750			
0.2695	17247.09	3.9680	3.9681	0.8805	7.14	1.17	0.750			
0.2721	17417.24	3.9650	3.9649	0.8782	7.13	1.16	0.750			
0.2748	17587.05	3.9620	3.9616	0.8850	7.13	1.16	0.750			
0.2774	17752.84	3.9590	3.9591	0.9024	7.12	1.15	0.750			
0.2800	17917.84	3.9560	3.9563	0.9402	7.11	1.14	0.750			
0.2827	18095.19	3.9530	3.9531	0.9832	7.11	1.14	0.750			
0.2859	18299.50	3.9500	3.9496	1.0186	7.10	1.13	0.750			
0.2891	18503.85	3.9470	3.9482	1.0380	7.09	1.12	0.750			
0.2924	18713.14	3.9440	3.9446	1.0445	7.07	1.10	0.750			
0.2957	18925.46	3.9410	3.9412	1.0365	7.06	1.09	0.750			
0.2987	19117.41	3.9380	3.9378	1.0067	7.05	1.08	0.750			
0.3014	19290.16	3.9350	3.9351	0.9548	7.05	1.08	0.750			
0.3043	19475.12	3.9320	3.9320	0.9477	7.04	1.07	0.750			
0.3071	19657.02	3.9290	3.9290	0.9571	7.03	1.06	0.750			
0.3100	19841.97	3.9260	3.9262	0.9659	7.03	1.06	0.750			
0.3129	20026.05	3.9230	3.9227	0.9700	7.02	1.05	0.750			
0.3158	20213.60	3.9200	3.9200	0.9733	7.01	1.04	0.750			
0.3188	20400.71	3.9170	3.9171	0.9826	7.01	1.04	0.750			
0.3217	20589.91	3.9140	3.9140	0.9960	7.00	1.03	0.750			
0.3247	20782.02	3.9110	3.9109	1.0037	6.99	1.02	0.750			
0.3277	20975.19	3.9080	3.9079	1.0090	6.98	1.01	0.750			
0.3308	21170.78	3.9050	3.9050	1.0228	6.97	1.00	0.750			
0.3339	21369.81	3.9020	3.9021	1.0326	6.96	0.99	0.750			
0.3370	21568.63	3.8990	3.8989	1.0487	6.95	0.98	0.750			
0.3402	21770.14	3.8960	3.8960	1.0467	6.94	0.97	0.750			
0.3433	21970.67	3.8930	3.8930	1.0589	6.93	0.96	0.750			
0.3465	22173.48	3.8900	3.8901	1.0765	6.92	0.95	0.750			
0.3497	22383.29	3.8870	3.8867	1.0923	6.91	0.94	0.750			
0.3530	22593.96	3.8840	3.8840	1.0918	6.90	0.93	0.750			
0.3563	22803.26	3.8810	3.8812	1.1063	6.89	0.92	0.750			
0.3596	23015.25	3.8780	3.8781	1.1168	6.88	0.91	0.750			
0.3630	23234.18	3.8750	3.8747	1.1314	6.87	0.90	0.750			
0.3664	23447.44	3.8720	3.8721	1.1387	6.86	0.89	0.750			
0.3698	23667.03	3.8690	3.8691	1.1592	6.85	0.88	0.750			
0.3734	23894.62	3.8660	3.8660	1.1884	6.84	0.87	0.750			
0.3770	24126.33	3.8630	3.8629	1.1920	6.82	0.85	0.750			
0.3804	24348.75	3.8600	3.8601	1.2358	6.81	0.84	0.750			
0.3842	24590.99	3.8570	3.8571	1.2784	6.80	0.83	0.750			
0.3882	24843.16	3.8540	3.8541	1.3040	6.79	0.82	0.750			
0.3921	25096.76	3.8510	3.8511	1.3213	6.78	0.81	0.750			
0.3962	25353.78	3.8480	3.8483	1.3473	6.78	0.81	0.750			
0.4002	25615.34	3.8450	3.8452	1.3606	6.77	0.80	0.750			
0.4044	25878.81	3.8420	3.8418	1.3859	6.75	0.78	0.750	0.400	0.895	
0.4084	26139.75	3.8390	3.8392	1.3924	6.74	0.77	0.750			
0.4127	26411.91	3.8360	3.8358	1.4150	6.72	0.75	0.750			
0.4170	26688.02	3.8330	3.8331	1.4319	6.71	0.74	0.750			
0.4213	26962.48	3.8300	3.8301	1.4441	6.69	0.72	0.750			
0.4256	27241.58	3.8270	3.8270	1.4750	6.68	0.71	0.750			
0.4301	27525.86	3.8240	3.8240	1.4982	6.66	0.69	0.750			
0.4346	27816.50	3.8210	3.8211	1.5261	6.65	0.68	0.750			
0.4393	28113.81	3.8180	3.8180	1.5622	6.63	0.66	0.750			
0.4440	28415.77	3.8150	3.8150	1.6026	6.61	0.64	0.750			
0.4489	28732.57	3.8120	3.8120	1.6209	6.59	0.62	0.750			
0.4539	29047.50	3.8090	3.8091	1.6405	6.58	0.61	0.750			
0.4588	29365.45	3.8060	3.8061	1.6607	6.56	0.59	0.750			
0.4638	29683.85	3.8030	3.8030	1.6768	6.55	0.58	0.750			
0.4688	30005.26	3.8000	3.8000	1.7031	6.53	0.56	0.750			
0.4740	30334.24	3.7970	3.7970	1.7355	6.51	0.54	0.750			
0.4793	30675.98	3.7940	3.7941	1.7713	6.50	0.53	0.750			
0.4847	31020.38	3.7910	3.7909	1.8036	6.48	0.51	0.750			
0.4903	31376.38	3.7880	3.7880	1.8345	6.46	0.49	0.750			
0.4957	31725.81	3.7850	3.7851	1.8309	6.43	0.46	0.750			
0.5013	32081.04	3.7820	3.7821	1.8560	6.41	0.44	0.750			
0.5068	32435.35	3.7790	3.7788	1.8593	6.39	0.42	0.750			
0.5123	32787.58	3.7760	3.7760	1.8672	6.37	0.40	0.750			
0.5180	33151.51	3.7730	3.7730	1.8950	6.35	0.38	0.750			
0.5238	33524.13	3.7700	3.7699	1.9190	6.33	0.36	0.750			
0.5296	33892.09	3.7670	3.7671	1.9282	6.32	0.35	0.750			
0.5354	34264.85	3.7640	3.7640	1.9466	6.30	0.33	0.750			
0.5413	34641.67	3.7610	3.7609	1.9769	6.28	0.31	0.750			
0.5472	35021.58	3.7580	3.7579	2.0148	6.26	0.29	0.750			
0.5535	35422.96	3.7550	3.7552	2.0222	6.23	0.26	0.750			
0.5595	35809.56	3.7520	3.7521	2.0651	6.20	0.23	0.750			
0.5657	36204.47	3.7490	3.7492	2.1103	6.18	0.21	0.750			
0.5721	36616.51	3.7460	3.7461	2.1830	6.17	0.20	0.750			
0.5787	37037.18	3.7430	3.7432	2.2746	6.15	0.18	0.750			
0.5858	37492.68	3.7400	3.7399	2.3450	6.13	0.16	0.750			
0.5928	37936.32	3.7370	3.7371	2.3763	6.11	0.14	0.750			
0.6001	38405.33	3.7340	3.7340	2.4142	6.09	0.12	0.750			
0.6074	38876.00	3.7310	3.7310	2.4421	6.07	0.10	0.750			
0.6148	39347.80	3.7280	3.7279	2.3964	6.05	0.08	0.750			
0.6219	39799.09	3.7250	3.7249	2.3742	6.04	0.07	0.750			
0.6290	40252.84	3.7220	3.7219	2.2896	6.02	0.05	0.750			
0.6359	40698.01	3.7190	3.7191	2.2408	6.00	0.03	0.750			
0.6424	41112.79	3.7160	3.7159	2.0361	5.99	0.02	0.750			
0.6481	41476.57	3.7130	3.7130	1.8022	5.99	0.02	0.750			
0.6530	41794.61	3.7100	3.7101	1.6146	5.98	0.01	0.750			
0.6575	42081.66	3.7070	3.7070	1.4410	5.97	-0.00	0.750			
0.6616	42341.89	3.7040	3.7038	1.3071	5.95	-0.02	0.750			
0.6651	42567.04	3.7010	3.7011	1.1829	5.95	-0.02	0.750			
0.6685	42782.50	3.6980	3.6980	1.0983	5.96	-0.01	0.750			
0.6716	42980.38	3.6950	3.6951	1.0331	5.96	-0.01	0.750			
0.6746	43172.51	3.6920	3.6919	0.9809	5.97	-0.00	0.750			
0.6774	43352.02	3.6890	3.6889	0.9360	5.97	-0.00	0.750			
0.6801	43526.56	3.6860	3.6860	0.9025	5.96	-0.01	0.750			
0.6827	43695.62	3.6830	3.6830	0.8729	5.96	-0.01	0.750			
0.6853	43861.34	3.6800	3.6800	0.8420	5.95	-0.02	0.750			
0.6878	44020.23	3.6770	3.6770	0.8139	5.95	-0.02	0.750			
0.6902	44173.44	3.6740	3.6740	0.7819	5.95	-0.02	0.750			
0.6926	44323.34	3.6710	3.6710	0.7491	5.95	-0.02	0.750			
0.6947	44462.24	3.6680	3.6680	0.7165	5.96	-0.01	0.750			
0.6968	44596.27	3.6650	3.6650	0.6829	5.96	-0.01	0.750			
0.6988	44724.47	3.6620	3.6621	0.6529	5.96	-0.01	0.750			
0.7007	44846.90	3.6590	3.6590	0.6215	5.96	-0.01	0.750			
0.7025	44962.30	3.6560	3.6561	0.5875	5.96	-0.01	0.750			
0.7043	45072.80	3.6530	3.6530	0.5579	5.96	-0.01	0.750			
0.7059	45177.14	3.6500	3.6500	0.5253	5.96	-0.01	0.750			
0.7074	45274.36	3.6470	3.6470	0.4905	5.97	-0.00	0.750			
0.7088	45366.00	3.6440	3.6440	0.4583	5.97	-0.00	0.750			
0.7102	45450.77	3.6410	3.6410	0.4263	5.97	-0.00	0.750			
0.7114	45529.63	3.6380	3.6380	0.3932	5.97	-0.00	0.750			
0.7125	45602.00	3.6350	3.6349	0.3594	5.97	0.00	0.750			
0.7136	45667.87	3.6320	3.6320	0.3242	5.97	0.00	0.750			
0.7145	45727.11	3.6290	3.6290	0.2899	5.97	0.00	0.750			
0.7153	45781.32	3.6260	3.6259	0.2514	5.97	0.00	0.750			
0.7160	45826.32	3.6230	3.6231	0.2117	5.97	0.00	0.750			
0.7166	45863.19	3.6200	3.6200	0.1701	5.97	0.00	0.750			
0.7171	45892.40	3.6170	3.6172	0.1279	5.97	0.00	0.750			
0.7174	45913.74	3.6140	3.6142	0.0835	5.97	0.00	0.750			
0.7176	45925.50	3.6110	3.6113	0.0376	5.97	0.00	0.750			
0.7176	45928.29	3.6080	3.6093	-0.0085	5.97	0.00	0.750			
