Ah_balance (normalized)	Ah_balance (mAh)	Voltage - fit (V)	Voltage -  interpolate (V)	dQ/dV (1/V)	Temperature (°C)	Temperature - diff (°C)	Current (C)	R_DC 0ms (mOhm)	R_DC 50ms (mOhm)	R_DC 50 ms PEC (mOhm)
0.1778	11379.77	4.0820	4.0821	0.8107	7.37	1.38	0.750			
0.1802	11532.87	4.0790	4.0791	0.7885	7.37	1.38	0.750			
0.1826	11684.09	4.0760	4.0761	0.7858	7.37	1.38	0.750			
0.1849	11834.13	4.0730	4.0729	0.7847	7.37	1.38	0.750			
0.1872	11983.75	4.0700	4.0700	0.7839	7.37	1.38	0.750			
0.1896	12134.28	4.0670	4.0669	0.7897	7.37	1.38	0.750			
0.1920	12287.42	4.0640	4.0640	0.7935	7.36	1.37	0.750			
0.1944	12442.72	4.0610	4.0610	0.7866	7.36	1.37	0.750			
0.1967	12591.84	4.0580	4.0580	0.7897	7.35	1.36	0.750			
0.1991	12743.54	4.0550	4.0551	0.7930	7.34	1.35	0.750			
0.2015	12893.14	4.0520	4.0521	0.7970	7.33	1.34	0.750			
0.2039	13046.88	4.0490	4.0490	0.8019	7.33	1.34	0.750			
0.2063	13203.08	4.0460	4.0460	0.8025	7.33	1.34	0.750			
0.2087	13358.61	4.0430	4.0431	0.8113	7.33	1.34	0.750			
0.2112	13515.60	4.0400	4.0400	0.8121	7.32	1.33	0.750			
0.2136	13669.93	4.0370	4.0370	0.8126	7.32	1.33	0.750			
0.2160	13825.58	4.0340	4.0341	0.8178	7.32	1.33	0.750			
0.2185	13983.58	4.0310	4.0310	0.8178	7.31	1.32	0.750			
0.2210	14142.65	4.0280	4.0279	0.8239	7.31	1.32	0.750			
0.2234	14300.80	4.0250	4.0251	0.8262	7.30	1.31	0.750			
0.2259	14458.54	4.0220	4.0220	0.8271	7.29	1.30	0.750			
0.2284	14618.47	4.0190	4.0190	0.8333	7.29	1.30	0.750			
0.2310	14781.23	4.0160	4.0159	0.8233	7.28	1.29	0.750			
0.2334	14937.68	4.0130	4.0130	0.8288	7.28	1.29	0.750			
0.2359	15095.62	4.0100	4.0102	0.8377	7.28	1.29	0.750			
0.2384	15255.97	4.0070	4.0071	0.8410	7.27	1.28	0.750			
0.2409	15417.33	4.0040	4.0041	0.8455	7.27	1.28	0.750			
0.2435	15581.98	4.0010	4.0011	0.8478	7.26	1.27	0.750			
0.2460	15745.46	3.9980	3.9981	0.8577	7.26	1.27	0.750			
0.2486	15911.42	3.9950	3.9950	0.8690	7.26	1.27	0.750			
0.2512	16076.92	3.9920	3.9921	0.8650	7.25	1.26	0.750			
0.2538	16245.06	3.9890	3.9889	0.8656	7.25	1.26	0.750			
0.2565	16415.45	3.9860	3.9860	0.8624	7.24	1.25	0.750			
0.2590	16578.56	3.9830	3.9832	0.8630	7.24	1.25	0.750			
0.2616	16744.15	3.9800	3.9800	0.8583	7.24	1.25	0.750			
0.2642	16906.27	3.9770	3.9770	0.8525	7.23	1.24	0.750			
0.2667	17068.74	3.9740	3.9740	0.8613	7.23	1.24	0.750			
0.2693	17234.63	3.9710	3.9712	0.8666	7.22	1.23	0.750			
0.2719	17402.29	3.9680	3.9679	0.8756	7.21	1.22	0.750			
0.2746	17571.62	3.9650	3.9650	0.8811	7.21	1.22	0.750			
0.2772	17741.77	3.9620	3.9617	0.8895	7.20	1.21	0.750			
0.2799	17916.35	3.9590	3.9590	0.8937	7.19	1.20	0.750			
0.2826	18085.45	3.9560	3.9561	0.8971	7.19	1.20	0.750			
0.2853	18257.23	3.9530	3.9530	0.9026	7.18	1.19	0.750			
0.2880	18430.63	3.9500	3.9501	0.9167	7.18	1.19	0.750			
0.2907	18606.05	3.9470	3.9468	0.9205	7.17	1.18	0.750			
0.2935	18784.86	3.9440	3.9441	0.9236	7.16	1.17	0.750			
0.2963	18964.34	3.9410	3.9411	0.9381	7.16	1.17	0.750			
0.2992	19146.12	3.9380	3.9381	0.9466	7.16	1.17	0.750			
0.3020	19327.75	3.9350	3.9348	0.9497	7.15	1.16	0.750			
0.3049	19512.58	3.9320	3.9321	0.9472	7.14	1.15	0.750			
0.3077	19693.50	3.9290	3.9290	0.9504	7.13	1.14	0.750			
0.3105	19875.08	3.9260	3.9261	0.9630	7.12	1.13	0.750			
0.3135	20061.24	3.9230	3.9231	0.9726	7.12	1.13	0.750			
0.3163	20245.26	3.9200	3.9201	0.9841	7.11	1.12	0.750			
0.3193	20435.75	3.9170	3.9170	0.9868	7.10	1.11	0.750			
0.3223	20625.88	3.9140	3.9141	1.0029	7.10	1.11	0.750			
0.3253	20821.42	3.9110	3.9109	1.0155	7.09	1.10	0.750			
0.3284	21019.12	3.9080	3.9084	1.0141	7.09	1.10	0.750			
0.3314	21212.15	3.9050	3.9052	1.0210	7.08	1.09	0.750			
0.3345	21409.90	3.9020	3.9020	1.0316	7.07	1.08	0.750			
0.3376	21608.71	3.8990	3.8988	1.0390	7.07	1.08	0.750			
0.3408	21808.59	3.8960	3.8959	1.0345	7.06	1.07	0.750			
0.3438	22004.34	3.8930	3.8931	1.0538	7.05	1.06	0.750			
0.3470	22209.94	3.8900	3.8901	1.0777	7.04	1.05	0.750			
0.3503	22419.78	3.8870	3.8870	1.0963	7.04	1.05	0.750			
0.3536	22631.24	3.8840	3.8839	1.0972	7.03	1.04	0.750			
0.3569	22844.77	3.8810	3.8811	1.1158	7.02	1.03	0.750			
0.3603	23057.65	3.8780	3.8781	1.1408	7.01	1.02	0.750			
0.3637	23279.94	3.8750	3.8750	1.1547	6.99	1.00	0.750			
0.3672	23500.61	3.8720	3.8720	1.1506	6.98	0.99	0.750			
0.3707	23724.41	3.8690	3.8690	1.1670	6.97	0.98	0.750			
0.3742	23950.26	3.8660	3.8663	1.1855	6.96	0.97	0.750			
0.3779	24183.33	3.8630	3.8627	1.1911	6.95	0.96	0.750			
0.3813	24406.37	3.8600	3.8601	1.2118	6.94	0.95	0.750			
0.3850	24639.89	3.8570	3.8571	1.2314	6.93	0.94	0.750			
0.3888	24880.95	3.8540	3.8539	1.2582	6.91	0.92	0.750			
0.3926	25124.51	3.8510	3.8510	1.2749	6.90	0.91	0.750			
0.3964	25372.58	3.8480	3.8482	1.2925	6.89	0.90	0.750			
0.4003	25621.14	3.8450	3.8450	1.3142	6.88	0.89	0.750			
0.4043	25872.47	3.8420	3.8420	1.3200	6.87	0.88	0.750			
0.4080	26111.51	3.8390	3.8393	1.3457	6.85	0.86	0.750			
0.4122	26378.86	3.8360	3.8358	1.3891	6.84	0.85	0.750	0.398	0.944	
0.4164	26647.88	3.8330	3.8334	1.4444	6.83	0.84	0.750			
0.4209	26936.29	3.8300	3.8303	1.4840	6.81	0.82	0.750			
0.4255	27231.47	3.8270	3.8271	1.5178	6.80	0.81	0.750			
0.4302	27532.79	3.8240	3.8241	1.5584	6.78	0.79	0.750			
0.4346	27816.49	3.8210	3.8207	1.5496	6.77	0.78	0.750			
0.4394	28120.20	3.8180	3.8179	1.5742	6.75	0.76	0.750			
0.4441	28423.73	3.8150	3.8151	1.5874	6.74	0.75	0.750			
0.4490	28738.01	3.8120	3.8120	1.6331	6.72	0.73	0.750			
0.4538	29044.21	3.8090	3.8088	1.6580	6.71	0.72	0.750			
0.4588	29363.96	3.8060	3.8060	1.6980	6.69	0.70	0.750			
0.4640	29694.27	3.8030	3.8030	1.7307	6.67	0.68	0.750			
0.4693	30038.01	3.8000	3.8001	1.7572	6.65	0.66	0.750			
0.4745	30370.05	3.7970	3.7973	1.8202	6.63	0.64	0.750			
0.4801	30723.22	3.7940	3.7940	1.8439	6.61	0.62	0.750			
0.4857	31082.06	3.7910	3.7910	1.8735	6.59	0.60	0.750			
0.4913	31445.23	3.7880	3.7881	1.8955	6.57	0.58	0.750			
0.4970	31810.44	3.7850	3.7853	1.9193	6.54	0.55	0.750			
0.5029	32182.50	3.7820	3.7819	1.9407	6.52	0.53	0.750			
0.5089	32571.44	3.7790	3.7789	2.0172	6.50	0.51	0.750			
0.5152	32969.83	3.7760	3.7758	2.0655	6.47	0.48	0.750			
0.5213	33362.68	3.7730	3.7733	2.1156	6.45	0.46	0.750			
0.5277	33774.76	3.7700	3.7700	2.1148	6.43	0.44	0.750			
0.5340	34178.13	3.7670	3.7671	2.1513	6.41	0.42	0.750			
0.5405	34589.78	3.7640	3.7637	2.1782	6.39	0.40	0.750			
0.5471	35016.38	3.7610	3.7608	2.1844	6.36	0.37	0.750			
0.5535	35426.32	3.7580	3.7581	2.1662	6.33	0.34	0.750			
0.5600	35841.74	3.7550	3.7549	2.2348	6.29	0.30	0.750			
0.5668	36274.21	3.7520	3.7519	2.2377	6.27	0.28	0.750			
0.5738	36720.68	3.7490	3.7492	2.3521	6.25	0.26	0.750			
0.5810	37181.62	3.7460	3.7457	2.3648	6.23	0.24	0.750			
0.5879	37626.53	3.7430	3.7431	2.3923	6.20	0.21	0.750			
0.5953	38097.04	3.7400	3.7399	2.5054	6.17	0.18	0.750			
0.6027	38575.26	3.7370	3.7372	2.5769	6.14	0.15	0.750			
0.6109	39098.68	3.7340	3.7341	2.7471	6.11	0.12	0.750			
0.6191	39620.73	3.7310	3.7311	2.7486	6.09	0.10	0.750			
0.6275	40159.36	3.7280	3.7280	2.8134	6.07	0.08	0.750			
0.6362	40719.97	3.7250	3.7249	2.8512	6.04	0.05	0.750			
0.6447	41261.54	3.7220	3.7221	2.7435	6.02	0.03	0.750			
0.6528	41776.25	3.7190	3.7188	2.7080	6.00	0.01	0.750			
0.6609	42294.89	3.7160	3.7159	2.5297	5.98	-0.01	0.750			
0.6685	42784.35	3.7130	3.7134	2.4293	5.97	-0.02	0.750			
0.6753	43221.55	3.7100	3.7101	2.1652	5.97	-0.02	0.750			
0.6813	43601.50	3.7070	3.7071	1.8483	5.96	-0.03	0.750			
0.6866	43939.38	3.7040	3.7040	1.6651	5.96	-0.03	0.750			
0.6912	44235.26	3.7010	3.7009	1.4540	5.95	-0.04	0.750			
0.6951	44484.09	3.6980	3.6980	1.2755	5.95	-0.04	0.750			
0.6984	44697.85	3.6950	3.6951	1.1289	5.95	-0.04	0.750			
0.7015	44895.77	3.6920	3.6919	1.0226	5.95	-0.04	0.750			
0.7044	45080.00	3.6890	3.6890	0.9412	5.95	-0.04	0.750			
0.7070	45249.53	3.6860	3.6859	0.8721	5.95	-0.04	0.750			
0.7096	45411.37	3.6830	3.6830	0.8256	5.95	-0.04	0.750			
0.7120	45564.90	3.6800	3.6800	0.7801	5.95	-0.04	0.750			
0.7142	45708.69	3.6770	3.6770	0.7332	5.95	-0.04	0.750			
0.7164	45847.79	3.6740	3.6740	0.6893	5.95	-0.04	0.750			
0.7184	45975.42	3.6710	3.6710	0.6394	5.96	-0.03	0.750			
0.7202	46094.28	3.6680	3.6680	0.5938	5.97	-0.02	0.750			
0.7219	46203.58	3.6650	3.6651	0.5476	5.97	-0.02	0.750			
0.7235	46303.43	3.6620	3.6619	0.4959	5.98	-0.01	0.750			
0.7249	46393.25	3.6590	3.6589	0.4482	5.98	-0.01	0.750			
0.7262	46474.57	3.6560	3.6561	0.4050	5.99	-0.00	0.750			
0.7273	46548.51	3.6530	3.6529	0.3654	5.99	-0.00	0.750			
0.7283	46613.39	3.6500	3.6500	0.3259	5.99	0.00	0.750			
0.7292	46670.34	3.6470	3.6471	0.2874	5.99	0.00	0.750			
0.7301	46723.98	3.6440	3.6438	0.2502	6.00	0.01	0.750			
0.7308	46769.61	3.6410	3.6410	0.2186	6.00	0.01	0.750			
0.7314	46807.89	3.6380	3.6380	0.1794	6.00	0.01	0.750			
0.7319	46839.24	3.6350	3.6351	0.1408	6.00	0.01	0.750			
0.7322	46863.41	3.6320	3.6320	0.1007	6.00	0.01	0.750			
0.7325	46878.57	3.6290	3.6292	0.0585	6.01	0.02	0.750			
0.7326	46884.89	3.6230	3.6259	-0.0256	6.01	0.02	0.750			
0.7326	46885.77	3.6260	3.6231	0.0164	6.01	0.02	0.750			
