Ah_balance (normalized)	Ah_balance (mAh)	Voltage - fit (V)	Voltage -  interpolate (V)	dQ/dV (1/V)	Temperature (°C)	Temperature - diff (°C)	Current (C)	R_DC 0ms (mOhm)	R_DC 50ms (mOhm)	R_DC 50 ms PEC (mOhm)
0.0990	6337.16	4.0060	4.0053	-0.0444	6.00	0.01	-0.750			
0.0992	6351.16	4.0030	4.0023	-0.0849	6.00	0.01	-0.750			
0.0995	6371.17	4.0000	3.9997	-0.1145	6.00	0.01	-0.750			
0.0999	6396.59	3.9970	3.9969	-0.1409	6.00	0.01	-0.750			
0.1004	6426.12	3.9940	3.9942	-0.1667	6.00	0.01	-0.750			
0.1009	6460.65	3.9910	3.9911	-0.1914	6.00	0.01	-0.750			
0.1016	6501.40	3.9880	3.9880	-0.2157	6.00	0.01	-0.750			
0.1023	6544.17	3.9850	3.9851	-0.2382	5.99	0.00	-0.750			
0.1030	6592.04	3.9820	3.9819	-0.2624	5.99	0.00	-0.750			
0.1038	6644.88	3.9790	3.9791	-0.2854	5.99	-0.00	-0.750			
0.1047	6701.48	3.9760	3.9760	-0.3105	5.99	-0.00	-0.750			
0.1057	6763.87	3.9730	3.9730	-0.3342	5.98	-0.01	-0.750			
0.1067	6830.58	3.9700	3.9700	-0.3559	5.98	-0.01	-0.750			
0.1078	6901.03	3.9670	3.9670	-0.3809	5.98	-0.01	-0.750			
0.1090	6976.06	3.9640	3.9641	-0.4043	5.97	-0.02	-0.750			
0.1102	7055.05	3.9610	3.9610	-0.4303	5.97	-0.02	-0.750			
0.1116	7140.32	3.9580	3.9579	-0.4563	5.96	-0.03	-0.750			
0.1130	7230.61	3.9550	3.9550	-0.4772	5.96	-0.03	-0.750			
0.1145	7325.74	3.9520	3.9520	-0.5002	5.96	-0.03	-0.750			
0.1160	7425.66	3.9490	3.9492	-0.5208	5.95	-0.04	-0.750			
0.1176	7526.73	3.9460	3.9459	-0.5374	5.95	-0.04	-0.750			
0.1192	7631.49	3.9430	3.9431	-0.5541	5.95	-0.04	-0.750			
0.1209	7739.00	3.9400	3.9400	-0.5698	5.95	-0.04	-0.750			
0.1227	7850.81	3.9370	3.9369	-0.5878	5.95	-0.04	-0.750			
0.1245	7965.73	3.9340	3.9340	-0.6048	5.95	-0.04	-0.750			
0.1263	8083.95	3.9310	3.9309	-0.6184	5.95	-0.04	-0.750			
0.1282	8204.19	3.9280	3.9281	-0.6297	5.95	-0.04	-0.750			
0.1301	8325.97	3.9250	3.9249	-0.6418	5.95	-0.04	-0.750			
0.1320	8450.55	3.9220	3.9220	-0.6505	5.95	-0.04	-0.750			
0.1340	8575.55	3.9190	3.9190	-0.6628	5.95	-0.04	-0.750			
0.1360	8703.58	3.9160	3.9160	-0.6676	5.95	-0.04	-0.750			
0.1380	8834.46	3.9130	3.9131	-0.6742	5.95	-0.04	-0.750			
0.1401	8964.51	3.9100	3.9099	-0.6823	5.95	-0.04	-0.750			
0.1421	9096.23	3.9070	3.9069	-0.6889	5.95	-0.04	-0.750			
0.1442	9229.79	3.9040	3.9039	-0.6908	5.95	-0.04	-0.750			
0.1463	9361.42	3.9010	3.9010	-0.7027	5.95	-0.04	-0.750			
0.1484	9496.48	3.8980	3.8981	-0.7047	5.95	-0.04	-0.750			
0.1506	9635.69	3.8950	3.8950	-0.7130	5.95	-0.04	-0.750			
0.1527	9773.28	3.8920	3.8919	-0.7173	5.95	-0.04	-0.750			
0.1549	9910.42	3.8890	3.8891	-0.7194	5.95	-0.04	-0.750			
0.1570	10048.65	3.8860	3.8859	-0.7234	5.95	-0.04	-0.750			
0.1592	10188.14	3.8830	3.8830	-0.7296	5.95	-0.04	-0.750			
0.1614	10326.76	3.8800	3.8800	-0.7279	5.96	-0.03	-0.750			
0.1636	10470.83	3.8770	3.8769	-0.7373	5.96	-0.03	-0.750			
0.1658	10613.03	3.8740	3.8741	-0.7342	5.96	-0.03	-0.750			
0.1680	10752.77	3.8710	3.8709	-0.7345	5.96	-0.03	-0.750			
0.1702	10892.58	3.8680	3.8681	-0.7371	5.97	-0.02	-0.750			
0.1724	11034.99	3.8650	3.8649	-0.7411	5.98	-0.01	-0.750			
0.1746	11176.46	3.8620	3.8619	-0.7436	5.98	-0.01	-0.750			
0.1769	11321.98	3.8590	3.8590	-0.7469	5.99	-0.00	-0.750			
0.1791	11465.56	3.8560	3.8561	-0.7480	5.99	0.00	-0.750			
0.1814	11610.56	3.8530	3.8530	-0.7513	5.99	0.00	-0.750			
0.1836	11753.11	3.8500	3.8500	-0.7536	5.99	0.00	-0.750			
0.1859	11897.06	3.8470	3.8470	-0.7510	5.99	0.00	-0.750			
0.1882	12044.66	3.8440	3.8439	-0.7540	5.99	0.00	-0.750			
0.1904	12187.43	3.8410	3.8410	-0.7513	5.99	0.00	-0.750			
0.1927	12332.43	3.8380	3.8381	-0.7507	5.99	0.00	-0.750			
0.1949	12474.97	3.8350	3.8349	-0.7491	6.00	0.01	-0.750			
0.1971	12616.67	3.8320	3.8320	-0.7523	6.00	0.01	-0.750			
0.1994	12760.36	3.8290	3.8290	-0.7586	6.00	0.01	-0.750			
0.2017	12910.09	3.8260	3.8259	-0.7671	6.01	0.02	-0.750			
0.2040	13058.06	3.8230	3.8231	-0.7651	6.01	0.02	-0.750			
0.2063	13205.65	3.8200	3.8200	-0.7609	6.02	0.03	-0.750			
0.2086	13351.81	3.8170	3.8171	-0.7670	6.03	0.04	-0.750			
0.2109	13497.69	3.8140	3.8138	-0.7598	6.03	0.04	-0.750			
0.2132	13642.89	3.8110	3.8110	-0.7607	6.04	0.05	-0.750			
0.2155	13788.91	3.8080	3.8079	-0.7590	6.05	0.06	-0.750			
0.2178	13937.07	3.8050	3.8049	-0.7634	6.05	0.06	-0.750			
0.2200	14082.74	3.8020	3.8020	-0.7642	6.06	0.07	-0.750			
0.2223	14228.20	3.7990	3.7990	-0.7691	6.06	0.07	-0.750			
0.2246	14375.09	3.7960	3.7961	-0.7699	6.06	0.07	-0.750			
0.2270	14526.47	3.7930	3.7928	-0.7762	6.07	0.08	-0.750			
0.2293	14675.08	3.7900	3.7901	-0.7719	6.07	0.08	-0.750			
0.2316	14824.33	3.7870	3.7870	-0.7744	6.07	0.08	-0.750			
0.2340	14972.95	3.7840	3.7840	-0.7696	6.08	0.09	-0.750			
0.2362	15118.90	3.7810	3.7809	-0.7626	6.08	0.09	-0.750			
0.2385	15266.32	3.7780	3.7781	-0.7642	6.09	0.10	-0.750			
0.2408	15412.50	3.7750	3.7750	-0.7636	6.09	0.10	-0.750			
0.2431	15558.10	3.7720	3.7719	-0.7701	6.09	0.10	-0.750			
0.2454	15705.95	3.7690	3.7688	-0.7748	6.10	0.11	-0.750			
0.2477	15854.39	3.7660	3.7660	-0.7733	6.10	0.11	-0.750			
0.2501	16004.64	3.7630	3.7631	-0.7763	6.10	0.11	-0.750			
0.2524	16155.99	3.7600	3.7600	-0.7789	6.11	0.12	-0.750			
0.2548	16305.01	3.7570	3.7571	-0.7811	6.11	0.12	-0.750			
0.2571	16452.44	3.7540	3.7539	-0.7820	6.12	0.13	-0.750			
0.2594	16601.86	3.7510	3.7509	-0.7850	6.13	0.14	-0.750			
0.2618	16753.60	3.7480	3.7480	-0.7903	6.14	0.15	-0.750			
0.2642	16907.54	3.7450	3.7450	-0.7928	6.14	0.15	-0.750			
0.2666	17061.64	3.7420	3.7420	-0.7973	6.15	0.16	-0.750			
0.2690	17214.26	3.7390	3.7390	-0.7976	6.15	0.16	-0.750			
0.2713	17365.52	3.7360	3.7360	-0.7991	6.16	0.17	-0.750			
0.2737	17519.89	3.7330	3.7330	-0.8033	6.16	0.17	-0.750			
0.2762	17674.13	3.7300	3.7300	-0.8081	6.17	0.18	-0.750			
0.2786	17829.36	3.7270	3.7272	-0.8146	6.17	0.18	-0.750			
0.2811	17987.84	3.7240	3.7239	-0.8220	6.17	0.18	-0.750			
0.2835	18145.62	3.7210	3.7209	-0.8289	6.18	0.19	-0.750			
0.2860	18306.12	3.7180	3.7180	-0.8310	6.18	0.19	-0.750			
0.2886	18467.21	3.7150	3.7150	-0.8382	6.19	0.20	-0.750			
0.2911	18628.39	3.7120	3.7123	-0.8399	6.19	0.20	-0.750			
0.2936	18789.28	3.7090	3.7089	-0.8427	6.19	0.20	-0.750			
0.2961	18949.77	3.7060	3.7060	-0.8546	6.19	0.20	-0.750			
0.2987	19115.18	3.7030	3.7030	-0.8617	6.19	0.20	-0.750			
0.3013	19283.60	3.7000	3.6998	-0.8717	6.19	0.20	-0.750			
0.3039	19451.34	3.6970	3.6973	-0.8750	6.19	0.20	-0.750			
0.3065	19618.72	3.6940	3.6940	-0.8841	6.19	0.20	-0.750			
0.3092	19788.12	3.6910	3.6910	-0.8958	6.20	0.21	-0.750			
0.3119	19958.56	3.6880	3.6879	-0.9021	6.20	0.21	-0.750			
0.3146	20136.30	3.6850	3.6849	-0.9148	6.21	0.22	-0.750			
0.3174	20313.49	3.6820	3.6821	-0.9223	6.21	0.22	-0.750			
0.3202	20493.30	3.6790	3.6790	-0.9406	6.21	0.22	-0.750			
0.3230	20674.51	3.6760	3.6760	-0.9449	6.22	0.23	-0.750			
0.3259	20855.33	3.6730	3.6728	-0.9450	6.22	0.23	-0.750			
0.3287	21037.31	3.6700	3.6704	-0.9549	6.22	0.23	-0.750			
0.3316	21222.37	3.6670	3.6670	-0.9691	6.22	0.23	-0.750			
0.3345	21409.09	3.6640	3.6640	-0.9782	6.22	0.23	-0.750			
0.3375	21597.09	3.6610	3.6609	-0.9854	6.21	0.22	-0.750			
0.3404	21788.77	3.6580	3.6581	-1.0003	6.21	0.22	-0.750			
0.3435	21981.75	3.6550	3.6549	-1.0113	6.21	0.22	-0.750			
0.3465	22177.79	3.6520	3.6520	-1.0204	6.22	0.23	-0.750			
0.3496	22372.58	3.6490	3.6490	-1.0281	6.22	0.23	-0.750			
0.3526	22569.35	3.6460	3.6460	-1.0351	6.23	0.24	-0.750			
0.3558	22771.45	3.6430	3.6430	-1.0555	6.23	0.24	-0.750			
0.3590	22976.09	3.6400	3.6399	-1.0647	6.23	0.24	-0.750			
0.3622	23183.14	3.6370	3.6370	-1.0722	6.23	0.24	-0.750			
0.3655	23389.34	3.6340	3.6342	-1.0769	6.23	0.24	-0.750			
0.3687	23598.36	3.6310	3.6309	-1.0965	6.23	0.24	-0.750			
0.3720	23808.92	3.6280	3.6280	-1.1049	6.23	0.24	-0.750			
0.3753	24019.86	3.6250	3.6249	-1.1147	6.23	0.24	-0.750			
0.3787	24234.77	3.6220	3.6223	-1.1231	6.23	0.24	-0.750			
0.3821	24456.40	3.6190	3.6189	-1.1404	6.23	0.24	-0.750			
0.3855	24675.01	3.6160	3.6160	-1.1510	6.23	0.24	-0.750			
0.3890	24894.75	3.6130	3.6130	-1.1623	6.23	0.24	-0.750			
0.3925	25119.83	3.6100	3.6100	-1.1788	6.23	0.24	-0.750			
0.3961	25348.07	3.6070	3.6069	-1.1852	6.23	0.24	-0.750			
0.3996	25574.72	3.6040	3.6041	-1.1986	6.24	0.25	-0.750			
0.4032	25806.01	3.6010	3.6010	-1.2166	6.24	0.25	-0.750			
0.4069	26042.25	3.5980	3.5979	-1.2269	6.24	0.25	-0.750			
0.4106	26278.30	3.5950	3.5948	-1.2346	6.24	0.25	-0.750			
0.4143	26516.43	3.5920	3.5924	-1.2507	6.24	0.25	-0.750	0.494	1.129	
0.4181	26758.12	3.5890	3.5891	-1.2612	6.24	0.25	-0.750			
0.4219	27004.42	3.5860	3.5859	-1.2785	6.24	0.25	-0.750			
0.4257	27246.46	3.5830	3.5830	-1.2943	6.24	0.25	-0.750			
0.4296	27492.99	3.5800	3.5802	-1.3018	6.24	0.25	-0.750			
0.4336	27749.38	3.5770	3.5770	-1.3103	6.24	0.25	-0.750			
0.4375	28002.82	3.5740	3.5739	-1.3212	6.23	0.24	-0.750			
0.4415	28257.44	3.5710	3.5714	-1.3308	6.23	0.24	-0.750			
0.4455	28514.50	3.5680	3.5678	-1.3423	6.24	0.25	-0.750			
0.4495	28770.48	3.5650	3.5650	-1.3505	6.24	0.25	-0.750			
0.4536	29030.04	3.5620	3.5622	-1.3788	6.25	0.26	-0.750			
0.4578	29300.97	3.5590	3.5589	-1.3975	6.25	0.26	-0.750			
0.4620	29568.25	3.5560	3.5558	-1.4322	6.25	0.26	-0.750			
0.4663	29844.85	3.5530	3.5534	-1.4417	6.25	0.26	-0.750			
0.4708	30129.96	3.5500	3.5499	-1.4570	6.25	0.26	-0.750			
0.4751	30409.55	3.5470	3.5469	-1.4536	6.25	0.26	-0.750			
0.4796	30691.61	3.5440	3.5441	-1.4551	6.25	0.26	-0.750			
0.4840	30972.87	3.5410	3.5409	-1.4763	6.25	0.26	-0.750			
0.4884	31256.48	3.5380	3.5378	-1.4711	6.25	0.26	-0.750			
0.4927	31531.61	3.5350	3.5348	-1.4632	6.25	0.26	-0.750			
0.4971	31813.55	3.5320	3.5321	-1.5047	6.25	0.26	-0.750			
0.5016	32102.82	3.5290	3.5287	-1.5236	6.26	0.27	-0.750			
0.5062	32394.27	3.5260	3.5256	-1.5403	6.26	0.27	-0.750			
0.5109	32698.37	3.5230	3.5230	-1.5987	6.27	0.28	-0.750			
0.5157	33004.44	3.5200	3.5199	-1.6089	6.27	0.28	-0.750			
0.5209	33336.17	3.5170	3.5170	-1.6269	6.27	0.28	-0.750			
0.5256	33641.56	3.5140	3.5140	-1.6045	6.27	0.28	-0.750			
0.5305	33951.09	3.5110	3.5109	-1.5988	6.27	0.28	-0.750			
0.5353	34259.63	3.5080	3.5081	-1.6065	6.27	0.28	-0.750			
0.5401	34564.86	3.5050	3.5051	-1.5758	6.27	0.28	-0.750			
0.5448	34865.60	3.5020	3.5019	-1.5813	6.28	0.29	-0.750			
0.5495	35167.56	3.4990	3.4990	-1.6087	6.28	0.29	-0.750			
0.5544	35479.28	3.4960	3.4960	-1.6100	6.29	0.30	-0.750			
0.5592	35791.59	3.4930	3.4932	-1.5953	6.29	0.30	-0.750			
0.5641	36100.75	3.4900	3.4902	-1.5755	6.29	0.30	-0.750			
0.5688	36402.52	3.4870	3.4868	-1.5756	6.29	0.30	-0.750			
0.5735	36702.06	3.4840	3.4840	-1.5701	6.30	0.31	-0.750			
0.5781	36998.41	3.4810	3.4810	-1.5624	6.31	0.32	-0.750			
0.5828	37297.18	3.4780	3.4780	-1.5616	6.32	0.33	-0.750			
0.5875	37598.72	3.4750	3.4750	-1.5686	6.33	0.34	-0.750			
0.5923	37908.02	3.4720	3.4720	-1.5601	6.34	0.35	-0.750			
0.5970	38210.63	3.4690	3.4692	-1.5483	6.35	0.36	-0.750			
0.6016	38500.93	3.4660	3.4661	-1.5296	6.36	0.37	-0.750			
0.6061	38791.22	3.4630	3.4629	-1.5021	6.36	0.37	-0.750			
0.6106	39079.89	3.4600	3.4599	-1.4977	6.37	0.38	-0.750			
0.6151	39366.43	3.4570	3.4570	-1.4896	6.37	0.38	-0.750			
0.6196	39651.74	3.4540	3.4539	-1.4659	6.38	0.39	-0.750			
0.6240	39934.37	3.4510	3.4511	-1.4441	6.40	0.41	-0.750			
0.6282	40207.11	3.4480	3.4483	-1.4271	6.41	0.42	-0.750			
0.6325	40477.23	3.4450	3.4448	-1.4035	6.42	0.43	-0.750			
0.6367	40747.53	3.4420	3.4420	-1.3793	6.44	0.45	-0.750			
0.6407	41006.58	3.4390	3.4392	-1.3602	6.45	0.46	-0.750			
0.6449	41273.07	3.4360	3.4360	-1.3493	6.46	0.47	-0.750			
0.6489	41529.05	3.4330	3.4329	-1.3193	6.47	0.48	-0.750			
0.6527	41775.89	3.4300	3.4302	-1.2915	6.49	0.50	-0.750			
0.6566	42020.83	3.4270	3.4270	-1.2685	6.50	0.51	-0.750			
0.6604	42263.47	3.4240	3.4238	-1.2414	6.51	0.52	-0.750			
0.6640	42498.83	3.4210	3.4210	-1.2166	6.52	0.53	-0.750			
0.6676	42726.26	3.4180	3.4181	-1.1953	6.54	0.55	-0.750			
0.6712	42959.97	3.4150	3.4150	-1.1812	6.55	0.56	-0.750			
0.6748	43184.42	3.4120	3.4118	-1.1522	6.56	0.57	-0.750			
0.6781	43401.56	3.4090	3.4092	-1.1206	6.58	0.59	-0.750			
0.6815	43616.20	3.4060	3.4060	-1.0985	6.59	0.60	-0.750			
0.6847	43819.36	3.4030	3.4030	-1.1069	6.60	0.61	-0.750			
0.6880	44029.70	3.4000	3.3999	-1.0986	6.62	0.63	-0.750			
0.6913	44241.31	3.3970	3.3969	-1.0734	6.63	0.64	-0.750			
0.6946	44455.43	3.3940	3.3941	-1.0588	6.65	0.66	-0.750			
0.6978	44659.90	3.3910	3.3912	-1.0204	6.67	0.68	-0.750			
0.7009	44857.44	3.3880	3.3880	-0.9795	6.68	0.69	-0.750			
0.7037	45035.33	3.3850	3.3851	-0.9293	6.70	0.71	-0.750			
0.7062	45199.63	3.3820	3.3820	-0.8753	6.71	0.72	-0.750			
0.7089	45366.71	3.3790	3.3791	-0.8586	6.73	0.74	-0.750			
0.7114	45530.07	3.3760	3.3760	-0.8346	6.74	0.75	-0.750			
0.7139	45689.78	3.3730	3.3729	-0.8127	6.75	0.76	-0.750			
0.7163	45843.15	3.3700	3.3702	-0.7887	6.76	0.77	-0.750			
0.7186	45993.10	3.3670	3.3669	-0.7627	6.77	0.78	-0.750			
0.7209	46136.24	3.3640	3.3640	-0.7355	6.78	0.79	-0.750			
0.7231	46276.11	3.3610	3.3610	-0.7391	6.79	0.80	-0.750			
