Ah_balance (normalized)	Ah_balance (mAh)	Voltage - fit (V)	Voltage -  interpolate (V)	dQ/dV (1/V)	Temperature (°C)	Temperature - diff (°C)	Current (C)	R_DC 0ms (mOhm)	R_DC 50ms (mOhm)	R_DC 50 ms PEC (mOhm)
0.1762	11275.46	4.0820	4.0820	0.7663	7.65	1.66	0.750			
0.1785	11421.72	4.0790	4.0790	0.7617	7.65	1.66	0.750			
0.1808	11568.79	4.0760	4.0760	0.7676	7.64	1.65	0.750			
0.1831	11716.14	4.0730	4.0730	0.7733	7.63	1.64	0.750			
0.1854	11866.64	4.0700	4.0700	0.7779	7.63	1.64	0.750			
0.1877	12015.72	4.0670	4.0671	0.7804	7.62	1.63	0.750			
0.1901	12167.68	4.0640	4.0639	0.7769	7.62	1.63	0.750			
0.1924	12316.38	4.0610	4.0611	0.7787	7.61	1.62	0.750			
0.1948	12464.05	4.0580	4.0579	0.7795	7.61	1.62	0.750			
0.1971	12613.43	4.0550	4.0548	0.7827	7.60	1.61	0.750			
0.1994	12763.87	4.0520	4.0520	0.7814	7.60	1.61	0.750			
0.2018	12915.32	4.0490	4.0491	0.7824	7.60	1.61	0.750			
0.2041	13065.59	4.0460	4.0461	0.7918	7.59	1.60	0.750			
0.2065	13219.18	4.0430	4.0430	0.7974	7.59	1.60	0.750			
0.2089	13369.68	4.0400	4.0399	0.7949	7.59	1.60	0.750			
0.2113	13523.15	4.0370	4.0370	0.8031	7.59	1.60	0.750			
0.2137	13679.44	4.0340	4.0340	0.8077	7.58	1.59	0.750			
0.2162	13836.33	4.0310	4.0310	0.8119	7.58	1.59	0.750			
0.2186	13993.57	4.0280	4.0280	0.8146	7.58	1.59	0.750			
0.2211	14147.39	4.0250	4.0250	0.8117	7.57	1.58	0.750			
0.2235	14304.90	4.0220	4.0221	0.8193	7.57	1.58	0.750			
0.2260	14462.77	4.0190	4.0190	0.8187	7.56	1.57	0.750			
0.2284	14618.53	4.0160	4.0160	0.8248	7.56	1.57	0.750			
0.2309	14778.79	4.0130	4.0130	0.8316	7.56	1.57	0.750			
0.2334	14938.36	4.0100	4.0101	0.8340	7.55	1.56	0.750			
0.2359	15099.50	4.0070	4.0070	0.8372	7.55	1.56	0.750			
0.2385	15261.97	4.0040	4.0041	0.8441	7.54	1.55	0.750			
0.2410	15425.20	4.0010	4.0009	0.8439	7.54	1.55	0.750			
0.2436	15587.72	3.9980	3.9979	0.8445	7.53	1.54	0.750			
0.2461	15748.80	3.9950	3.9954	0.8447	7.52	1.53	0.750			
0.2486	15911.59	3.9920	3.9919	0.8491	7.52	1.53	0.750			
0.2512	16074.92	3.9890	3.9889	0.8509	7.51	1.52	0.750			
0.2537	16237.25	3.9860	3.9860	0.8544	7.50	1.51	0.750			
0.2563	16401.54	3.9830	3.9831	0.8560	7.50	1.51	0.750			
0.2589	16568.93	3.9800	3.9800	0.8672	7.49	1.50	0.750			
0.2615	16735.66	3.9770	3.9771	0.8683	7.49	1.50	0.750			
0.2641	16901.25	3.9740	3.9740	0.8695	7.48	1.49	0.750			
0.2667	17068.62	3.9710	3.9710	0.8761	7.48	1.49	0.750			
0.2693	17236.70	3.9680	3.9681	0.8798	7.47	1.48	0.750			
0.2720	17406.98	3.9650	3.9647	0.8866	7.47	1.48	0.750			
0.2747	17581.51	3.9620	3.9620	0.8902	7.46	1.47	0.750			
0.2774	17750.76	3.9590	3.9590	0.8913	7.46	1.47	0.750			
0.2800	17922.78	3.9560	3.9560	0.9009	7.45	1.46	0.750			
0.2827	18094.81	3.9530	3.9531	0.9082	7.45	1.46	0.750			
0.2854	18268.05	3.9500	3.9498	0.9097	7.44	1.45	0.750			
0.2882	18444.76	3.9470	3.9470	0.9106	7.43	1.44	0.750			
0.2909	18620.57	3.9440	3.9441	0.9198	7.43	1.44	0.750			
0.2937	18795.68	3.9410	3.9410	0.9336	7.42	1.43	0.750			
0.2965	18975.58	3.9380	3.9379	0.9387	7.41	1.42	0.750			
0.2994	19159.28	3.9350	3.9350	0.9393	7.41	1.42	0.750			
0.3022	19340.45	3.9320	3.9321	0.9443	7.40	1.41	0.750			
0.3050	19522.62	3.9290	3.9292	0.9568	7.39	1.40	0.750			
0.3079	19707.54	3.9260	3.9260	0.9637	7.38	1.39	0.750			
0.3108	19890.44	3.9230	3.9228	0.9642	7.38	1.39	0.750			
0.3137	20073.74	3.9200	3.9200	0.9698	7.37	1.38	0.750			
0.3166	20261.44	3.9170	3.9171	0.9855	7.36	1.37	0.750			
0.3196	20451.80	3.9140	3.9140	1.0001	7.36	1.37	0.750			
0.3226	20645.38	3.9110	3.9109	1.0068	7.35	1.36	0.750			
0.3256	20838.14	3.9080	3.9082	1.0114	7.34	1.35	0.750			
0.3287	21035.76	3.9050	3.9049	1.0254	7.33	1.34	0.750			
0.3318	21236.09	3.9020	3.9021	1.0331	7.32	1.33	0.750			
0.3349	21436.05	3.8990	3.8988	1.0322	7.31	1.32	0.750			
0.3380	21631.62	3.8960	3.8960	1.0253	7.31	1.32	0.750			
0.3410	21826.69	3.8930	3.8931	1.0328	7.31	1.32	0.750			
0.3441	22022.14	3.8900	3.8901	1.0520	7.30	1.31	0.750			
0.3472	22223.96	3.8870	3.8865	1.0692	7.30	1.31	0.750			
0.3505	22429.99	3.8840	3.8841	1.0730	7.29	1.30	0.750			
0.3537	22636.35	3.8810	3.8812	1.1000	7.27	1.28	0.750			
0.3571	22852.87	3.8780	3.8781	1.1243	7.26	1.27	0.750			
0.3604	23068.46	3.8750	3.8748	1.1267	7.25	1.26	0.750			
0.3639	23286.94	3.8720	3.8721	1.1425	7.24	1.25	0.750			
0.3673	23509.04	3.8690	3.8692	1.1588	7.24	1.25	0.750			
0.3709	23736.70	3.8660	3.8660	1.1763	7.23	1.24	0.750			
0.3744	23961.92	3.8630	3.8630	1.1815	7.22	1.23	0.750			
0.3779	24187.26	3.8600	3.8602	1.1932	7.21	1.22	0.750			
0.3815	24418.52	3.8570	3.8570	1.2209	7.20	1.21	0.750			
0.3852	24655.55	3.8540	3.8542	1.2385	7.19	1.20	0.750			
0.3890	24894.11	3.8510	3.8510	1.2559	7.18	1.19	0.750			
0.3928	25137.95	3.8480	3.8480	1.2714	7.16	1.17	0.750			
0.3967	25385.64	3.8450	3.8449	1.2910	7.15	1.16	0.750			
0.4005	25631.23	3.8420	3.8422	1.3321	7.14	1.15	0.750			
0.4045	25890.86	3.8390	3.8389	1.3689	7.13	1.14	0.750			
0.4087	26158.64	3.8360	3.8358	1.3907	7.11	1.12	0.750	0.390	0.887	
0.4130	26432.56	3.8330	3.8332	1.4102	7.10	1.11	0.750			
0.4173	26709.13	3.8300	3.8301	1.4480	7.08	1.09	0.750			
0.4218	26993.40	3.8270	3.8267	1.4432	7.06	1.07	0.750			
0.4260	27261.48	3.8240	3.8242	1.4517	7.05	1.06	0.750			
0.4303	27540.10	3.8210	3.8209	1.5113	7.03	1.04	0.750			
0.4349	27830.52	3.8180	3.8177	1.5477	7.01	1.02	0.750			
0.4396	28134.26	3.8150	3.8153	1.5680	6.99	1.00	0.750			
0.4444	28444.70	3.8120	3.8123	1.6314	6.98	0.99	0.750			
0.4493	28757.78	3.8090	3.8091	1.6638	6.96	0.97	0.750			
0.4544	29078.45	3.8060	3.8057	1.6811	6.94	0.95	0.750			
0.4594	29403.13	3.8030	3.8031	1.6979	6.91	0.92	0.750			
0.4646	29737.55	3.8000	3.8001	1.7365	6.89	0.90	0.750			
0.4700	30079.52	3.7970	3.7972	1.7811	6.88	0.89	0.750			
0.4753	30419.84	3.7940	3.7941	1.8165	6.86	0.87	0.750			
0.4809	30777.81	3.7910	3.7911	1.8358	6.83	0.84	0.750			
0.4865	31135.36	3.7880	3.7881	1.8284	6.80	0.81	0.750			
0.4918	31474.24	3.7850	3.7854	1.8267	6.78	0.79	0.750			
0.4973	31829.23	3.7820	3.7822	1.8574	6.75	0.76	0.750			
0.5031	32201.54	3.7790	3.7791	1.9042	6.73	0.74	0.750			
0.5089	32566.84	3.7760	3.7759	1.9609	6.71	0.72	0.750			
0.5147	32938.19	3.7730	3.7729	1.9420	6.69	0.70	0.750			
0.5205	33311.68	3.7700	3.7698	1.9610	6.66	0.67	0.750			
0.5265	33694.29	3.7670	3.7672	1.9761	6.63	0.64	0.750			
0.5325	34082.98	3.7640	3.7640	2.0064	6.60	0.61	0.750			
0.5386	34470.87	3.7610	3.7613	2.0616	6.57	0.58	0.750			
0.5449	34875.08	3.7580	3.7583	2.0713	6.54	0.55	0.750			
0.5512	35274.87	3.7550	3.7550	2.0959	6.51	0.52	0.750			
0.5575	35682.78	3.7520	3.7517	2.1811	6.48	0.49	0.750			
0.5642	36107.54	3.7490	3.7491	2.2101	6.45	0.46	0.750			
0.5708	36528.10	3.7460	3.7461	2.2779	6.42	0.43	0.750			
0.5775	36961.61	3.7430	3.7431	2.2949	6.39	0.40	0.750			
0.5846	37412.48	3.7400	3.7400	2.3685	6.35	0.36	0.750			
0.5921	37891.57	3.7370	3.7371	2.4606	6.32	0.33	0.750			
0.5993	38357.61	3.7340	3.7340	2.4230	6.28	0.29	0.750			
0.6063	38804.29	3.7310	3.7315	2.6292	6.26	0.27	0.750			
0.6143	39315.15	3.7280	3.7279	2.8776	6.24	0.25	0.750			
0.6237	39916.66	3.7250	3.7248	3.0612	6.20	0.21	0.750			
0.6330	40512.90	3.7220	3.7220	2.8631	6.16	0.17	0.750			
0.6408	41012.76	3.7190	3.7190	2.5825	6.13	0.14	0.750			
0.6477	41453.97	3.7160	3.7159	2.2067	6.11	0.12	0.750			
0.6539	41850.91	3.7130	3.7129	1.9781	6.09	0.10	0.750			
0.6595	42206.99	3.7100	3.7099	1.7741	6.07	0.08	0.750			
0.6644	42523.18	3.7070	3.7067	1.5812	6.06	0.07	0.750			
0.6688	42802.05	3.7040	3.7041	1.4069	6.06	0.07	0.750			
0.6727	43051.99	3.7010	3.7010	1.2662	6.05	0.06	0.750			
0.6763	43280.46	3.6980	3.6981	1.1626	6.04	0.05	0.750			
0.6795	43485.53	3.6950	3.6949	1.0629	6.04	0.05	0.750			
0.6825	43681.45	3.6920	3.6920	1.0008	6.03	0.04	0.750			
0.6854	43864.04	3.6890	3.6890	0.9451	6.03	0.04	0.750			
0.6881	44040.15	3.6860	3.6861	0.9034	6.02	0.03	0.750			
0.6908	44209.34	3.6830	3.6830	0.8648	6.01	0.02	0.750			
0.6933	44371.42	3.6800	3.6799	0.8321	6.00	0.01	0.750			
0.6957	44526.24	3.6770	3.6770	0.7962	6.00	0.01	0.750			
0.6981	44677.22	3.6740	3.6742	0.7661	5.99	0.00	0.750			
0.7003	44822.24	3.6710	3.6710	0.7379	5.99	0.00	0.750			
0.7025	44960.59	3.6680	3.6680	0.7017	5.99	0.00	0.750			
0.7046	45093.23	3.6650	3.6650	0.6685	5.99	0.00	0.750			
0.7065	45219.14	3.6620	3.6620	0.6323	5.99	0.00	0.750			
0.7084	45336.89	3.6590	3.6590	0.5945	5.99	0.00	0.750			
0.7101	45447.72	3.6560	3.6560	0.5566	5.99	0.00	0.750			
0.7117	45550.91	3.6530	3.6529	0.5180	5.99	0.00	0.750			
0.7132	45645.65	3.6500	3.6500	0.4786	5.99	0.00	0.750			
0.7146	45734.26	3.6470	3.6470	0.4430	5.99	0.00	0.750			
0.7159	45815.22	3.6440	3.6440	0.4049	5.99	0.00	0.750			
0.7170	45889.86	3.6410	3.6409	0.3695	5.99	0.00	0.750			
0.7181	45956.66	3.6380	3.6381	0.3348	5.99	0.00	0.750			
0.7190	46017.82	3.6350	3.6349	0.3011	5.99	0.00	0.750			
0.7199	46072.16	3.6320	3.6319	0.2669	5.99	0.00	0.750			
0.7206	46121.25	3.6290	3.6290	0.2281	5.99	0.00	0.750			
0.7213	46162.20	3.6260	3.6260	0.1919	5.99	0.00	0.750			
0.7218	46196.48	3.6230	3.6230	0.1538	5.99	0.00	0.750			
0.7222	46223.17	3.6200	3.6202	0.1129	5.99	0.00	0.750			
0.7225	46240.64	3.6170	3.6177	0.0697	5.99	0.00	0.750			
0.7227	46250.43	3.6140	3.6147	0.0247	5.99	0.00	0.750			
0.7227	46250.87	3.6110	3.6146	-0.0202	5.99	0.00	0.750			
