Ah_balance (normalized)	Ah_balance (mAh)	Voltage - fit (V)	Voltage -  interpolate (V)	dQ/dV (1/V)	Temperature (°C)	Temperature - diff (°C)	Current (C)	R_DC 0ms (mOhm)	R_DC 50ms (mOhm)	R_DC 50 ms PEC (mOhm)
0.1788	11446.28	4.0790	4.0791	0.7960	7.39	1.40	0.750			
0.1813	11601.03	4.0760	4.0759	0.7929	7.38	1.39	0.750			
0.1836	11748.06	4.0730	4.0730	0.7831	7.38	1.39	0.750			
0.1859	11897.66	4.0700	4.0701	0.7835	7.38	1.39	0.750			
0.1882	12046.72	4.0670	4.0670	0.7832	7.37	1.38	0.750			
0.1906	12197.92	4.0640	4.0640	0.7888	7.37	1.38	0.750			
0.1930	12351.14	4.0610	4.0610	0.7850	7.36	1.37	0.750			
0.1953	12501.14	4.0580	4.0581	0.7866	7.36	1.37	0.750			
0.1977	12654.55	4.0550	4.0550	0.7922	7.36	1.37	0.750			
0.2000	12803.07	4.0520	4.0521	0.7898	7.35	1.36	0.750			
0.2024	12954.70	4.0490	4.0489	0.7922	7.35	1.36	0.750			
0.2048	13107.41	4.0460	4.0460	0.7977	7.35	1.36	0.750			
0.2072	13260.70	4.0430	4.0430	0.8045	7.35	1.36	0.750			
0.2096	13417.34	4.0400	4.0400	0.8095	7.35	1.36	0.750			
0.2121	13572.80	4.0370	4.0370	0.8101	7.35	1.36	0.750			
0.2145	13729.44	4.0340	4.0340	0.8145	7.35	1.36	0.750			
0.2170	13886.29	4.0310	4.0310	0.8161	7.35	1.36	0.750			
0.2194	14043.53	4.0280	4.0280	0.8170	7.34	1.35	0.750			
0.2219	14198.86	4.0250	4.0251	0.8209	7.34	1.35	0.750			
0.2243	14356.49	4.0220	4.0220	0.8259	7.33	1.34	0.750			
0.2268	14516.58	4.0190	4.0188	0.8279	7.33	1.34	0.750			
0.2293	14675.80	4.0160	4.0161	0.8295	7.32	1.33	0.750			
0.2318	14835.43	4.0130	4.0131	0.8301	7.32	1.33	0.750			
0.2343	14995.52	4.0100	4.0099	0.8345	7.31	1.32	0.750			
0.2368	15154.07	4.0070	4.0070	0.8353	7.31	1.32	0.750			
0.2393	15314.98	4.0040	4.0039	0.8386	7.30	1.31	0.750			
0.2418	15476.23	4.0010	4.0010	0.8455	7.29	1.30	0.750			
0.2444	15639.37	3.9980	3.9981	0.8456	7.29	1.30	0.750			
0.2469	15801.68	3.9950	3.9950	0.8493	7.28	1.29	0.750			
0.2495	15964.84	3.9920	3.9921	0.8491	7.28	1.29	0.750			
0.2520	16127.42	3.9890	3.9887	0.8540	7.27	1.28	0.750			
0.2546	16291.46	3.9860	3.9862	0.8565	7.27	1.28	0.750			
0.2571	16457.06	3.9830	3.9829	0.8624	7.27	1.28	0.750			
0.2597	16622.63	3.9800	3.9800	0.8713	7.26	1.27	0.750			
0.2624	16791.00	3.9770	3.9771	0.8706	7.26	1.27	0.750			
0.2650	16959.68	3.9740	3.9740	0.8747	7.26	1.27	0.750			
0.2676	17128.19	3.9710	3.9710	0.8801	7.25	1.26	0.750			
0.2702	17295.70	3.9680	3.9681	0.8827	7.25	1.26	0.750			
0.2729	17466.29	3.9650	3.9649	0.8877	7.24	1.25	0.750			
0.2756	17637.73	3.9620	3.9619	0.8892	7.23	1.24	0.750			
0.2783	17808.22	3.9590	3.9591	0.8918	7.23	1.24	0.750			
0.2810	17982.08	3.9560	3.9560	0.8929	7.22	1.23	0.750			
0.2836	18151.63	3.9530	3.9530	0.8961	7.22	1.23	0.750			
0.2863	18321.25	3.9500	3.9500	0.8997	7.21	1.22	0.750			
0.2890	18494.72	3.9470	3.9468	0.9071	7.21	1.22	0.750			
0.2917	18671.70	3.9440	3.9440	0.9110	7.21	1.22	0.750			
0.2945	18846.96	3.9410	3.9410	0.9203	7.20	1.21	0.750			
0.2973	19025.14	3.9380	3.9380	0.9306	7.20	1.21	0.750			
0.3001	19205.09	3.9350	3.9351	0.9415	7.19	1.20	0.750			
0.3029	19382.81	3.9320	3.9321	0.9467	7.19	1.20	0.750			
0.3057	19564.10	3.9290	3.9290	0.9685	7.18	1.19	0.750			
0.3086	19749.53	3.9260	3.9261	0.9940	7.18	1.19	0.750			
0.3116	19944.09	3.9230	3.9229	1.0108	7.17	1.18	0.750			
0.3147	20141.96	3.9200	3.9198	1.0205	7.17	1.18	0.750			
0.3179	20343.34	3.9170	3.9173	1.0217	7.16	1.17	0.750			
0.3210	20541.49	3.9140	3.9141	1.0197	7.15	1.16	0.750			
0.3240	20738.43	3.9110	3.9110	1.0204	7.14	1.15	0.750			
0.3271	20932.54	3.9080	3.9078	1.0145	7.13	1.14	0.750			
0.3300	21120.47	3.9050	3.9051	1.0128	7.12	1.13	0.750			
0.3331	21316.33	3.9020	3.9021	1.0222	7.11	1.12	0.750			
0.3362	21514.50	3.8990	3.8990	1.0359	7.10	1.11	0.750			
0.3393	21714.54	3.8960	3.8957	1.0465	7.09	1.10	0.750			
0.3424	21915.15	3.8930	3.8930	1.0495	7.08	1.09	0.750			
0.3456	22116.15	3.8900	3.8901	1.0629	7.07	1.08	0.750			
0.3488	22321.70	3.8870	3.8870	1.0770	7.06	1.07	0.750			
0.3521	22531.54	3.8840	3.8838	1.0805	7.05	1.06	0.750			
0.3553	22737.99	3.8810	3.8811	1.0986	7.04	1.05	0.750			
0.3586	22949.06	3.8780	3.8781	1.1140	7.03	1.04	0.750			
0.3620	23165.13	3.8750	3.8751	1.1341	7.02	1.03	0.750			
0.3654	23382.89	3.8720	3.8720	1.1529	7.01	1.02	0.750			
0.3688	23604.82	3.8690	3.8691	1.1629	7.00	1.01	0.750			
0.3723	23830.31	3.8660	3.8661	1.1856	6.98	0.99	0.750			
0.3760	24062.29	3.8630	3.8627	1.2008	6.97	0.98	0.750			
0.3796	24293.86	3.8600	3.8601	1.2061	6.96	0.97	0.750			
0.3832	24527.28	3.8570	3.8570	1.2221	6.95	0.96	0.750			
0.3869	24762.67	3.8540	3.8542	1.2377	6.95	0.96	0.750			
0.3907	25003.68	3.8510	3.8509	1.2567	6.94	0.95	0.750			
0.3944	25241.04	3.8480	3.8480	1.2539	6.92	0.93	0.750			
0.3981	25478.05	3.8450	3.8451	1.2922	6.91	0.92	0.750			
0.4020	25729.50	3.8420	3.8418	1.3245	6.90	0.91	0.750			
0.4060	25986.44	3.8390	3.8390	1.3706	6.88	0.89	0.750			
0.4103	26257.74	3.8360	3.8365	1.3980	6.87	0.88	0.750	0.415	0.912	
0.4145	26530.36	3.8330	3.8327	1.4313	6.85	0.86	0.750			
0.4189	26811.93	3.8300	3.8302	1.4442	6.84	0.85	0.750			
0.4234	27096.23	3.8270	3.8270	1.4737	6.82	0.83	0.750			
0.4277	27372.95	3.8240	3.8240	1.4947	6.81	0.82	0.750			
0.4322	27663.18	3.8210	3.8210	1.5030	6.79	0.80	0.750			
0.4368	27956.20	3.8180	3.8183	1.5361	6.78	0.79	0.750			
0.4415	28256.15	3.8150	3.8152	1.5615	6.76	0.77	0.750			
0.4462	28558.90	3.8120	3.8118	1.5984	6.75	0.76	0.750			
0.4510	28865.65	3.8090	3.8089	1.6169	6.73	0.74	0.750			
0.4559	29178.46	3.8060	3.8059	1.6673	6.72	0.73	0.750			
0.4611	29507.69	3.8030	3.8029	1.7104	6.70	0.71	0.750			
0.4663	29841.53	3.8000	3.7998	1.7330	6.68	0.69	0.750			
0.4715	30178.60	3.7970	3.7971	1.7779	6.67	0.68	0.750			
0.4770	30526.50	3.7940	3.7941	1.7911	6.65	0.66	0.750			
0.4822	30863.21	3.7910	3.7909	1.8288	6.63	0.64	0.750			
0.4878	31219.02	3.7880	3.7880	1.8667	6.61	0.62	0.750			
0.4934	31579.96	3.7850	3.7848	1.8996	6.59	0.60	0.750			
0.4992	31951.71	3.7820	3.7824	1.9407	6.56	0.57	0.750			
0.5052	32333.26	3.7790	3.7789	1.9595	6.54	0.55	0.750			
0.5110	32706.56	3.7760	3.7760	1.9516	6.52	0.53	0.750			
0.5169	33084.22	3.7730	3.7731	1.9813	6.50	0.51	0.750			
0.5229	33464.54	3.7700	3.7699	1.9952	6.47	0.48	0.750			
0.5288	33842.75	3.7670	3.7671	2.0259	6.44	0.45	0.750			
0.5350	34241.24	3.7640	3.7640	2.0867	6.42	0.43	0.750			
0.5412	34637.78	3.7610	3.7610	2.1290	6.40	0.41	0.750			
0.5479	35062.48	3.7580	3.7581	2.1550	6.38	0.39	0.750			
0.5543	35473.63	3.7550	3.7548	2.1925	6.36	0.37	0.750			
0.5608	35894.02	3.7520	3.7518	2.1816	6.34	0.35	0.750			
0.5675	36321.02	3.7490	3.7490	2.1966	6.32	0.33	0.750			
0.5739	36726.54	3.7460	3.7458	2.2478	6.30	0.31	0.750			
0.5808	37172.54	3.7430	3.7429	2.3411	6.27	0.28	0.750			
0.5881	37640.58	3.7400	3.7401	2.4574	6.24	0.25	0.750			
0.5956	38118.27	3.7370	3.7371	2.5108	6.21	0.22	0.750			
0.6030	38595.19	3.7340	3.7340	2.5382	6.19	0.20	0.750			
0.6107	39084.48	3.7310	3.7310	2.6098	6.16	0.17	0.750			
0.6188	39601.29	3.7280	3.7280	2.6553	6.13	0.14	0.750			
0.6269	40123.37	3.7250	3.7251	2.6525	6.09	0.10	0.750			
0.6348	40626.55	3.7220	3.7220	2.5976	6.06	0.07	0.750			
0.6426	41123.93	3.7190	3.7188	2.5015	6.04	0.05	0.750			
0.6501	41604.53	3.7160	3.7159	2.3811	6.03	0.04	0.750			
0.6570	42049.66	3.7130	3.7129	2.2340	6.02	0.03	0.750			
0.6634	42456.36	3.7100	3.7099	1.9982	6.00	0.01	0.750			
0.6691	42820.14	3.7070	3.7072	1.7937	6.00	0.01	0.750			
0.6741	43140.54	3.7040	3.7042	1.5924	5.99	0.00	0.750			
0.6785	43424.28	3.7010	3.7011	1.4140	5.99	-0.00	0.750			
0.6825	43677.98	3.6980	3.6980	1.2616	5.98	-0.01	0.750			
0.6858	43894.27	3.6950	3.6950	1.1437	5.98	-0.01	0.750			
0.6890	44096.79	3.6920	3.6919	1.0467	5.97	-0.02	0.750			
0.6919	44284.43	3.6890	3.6890	0.9735	5.97	-0.02	0.750			
0.6947	44462.02	3.6860	3.6859	0.9249	5.97	-0.02	0.750			
0.6974	44633.25	3.6830	3.6831	0.8832	5.97	-0.02	0.750			
0.7000	44799.05	3.6800	3.6800	0.8471	5.97	-0.02	0.750			
0.7025	44957.83	3.6770	3.6769	0.8090	5.97	-0.02	0.750			
0.7049	45110.40	3.6740	3.6740	0.7717	5.97	-0.02	0.750			
0.7071	45256.87	3.6710	3.6710	0.7337	5.97	-0.02	0.750			
0.7093	45392.59	3.6680	3.6680	0.6948	5.98	-0.01	0.750			
0.7113	45521.35	3.6650	3.6650	0.6528	5.98	-0.01	0.750			
0.7132	45643.59	3.6620	3.6620	0.6119	5.98	-0.01	0.750			
0.7150	45757.58	3.6590	3.6589	0.5721	5.98	-0.01	0.750			
0.7166	45864.20	3.6560	3.6561	0.5320	5.98	-0.01	0.750			
0.7182	45961.93	3.6530	3.6530	0.4909	5.98	-0.01	0.750			
0.7196	46052.18	3.6500	3.6499	0.4521	5.98	-0.01	0.750			
0.7208	46133.56	3.6470	3.6469	0.4117	5.99	-0.00	0.750			
0.7220	46208.79	3.6440	3.6440	0.3752	5.99	-0.00	0.750			
0.7231	46278.02	3.6410	3.6410	0.3386	5.99	-0.00	0.750			
0.7241	46339.77	3.6380	3.6380	0.3029	5.99	-0.00	0.750			
0.7249	46394.59	3.6350	3.6350	0.2661	5.99	-0.00	0.750			
0.7257	46441.81	3.6320	3.6320	0.2275	5.99	-0.00	0.750			
0.7263	46481.99	3.6290	3.6288	0.1903	5.99	-0.00	0.750			
0.7268	46514.42	3.6260	3.6260	0.1517	5.99	0.00	0.750			
0.7272	46540.77	3.6230	3.6235	0.1156	5.99	0.00	0.750			
0.7275	46559.30	3.6200	3.6208	0.0775	5.99	0.00	0.750			
0.7277	46572.66	3.6170	3.6168	0.0338	5.99	0.00	0.750			
0.7277	46574.99	3.6140	3.6152	-0.0095	5.99	0.00	0.750			
