Ah_balance (normalized)	Ah_balance (mAh)	Voltage - fit (V)	Voltage -  interpolate (V)	dQ/dV (1/V)	Temperature (°C)	Temperature - diff (°C)	Current (C)	R_DC 0ms (mOhm)	R_DC 50ms (mOhm)	R_DC 50 ms PEC (mOhm)
0.1791	11462.01	4.0800	4.0798	0.7455	7.32	1.35	0.750			
0.1813	11604.55	4.0770	4.0771	0.7505	7.32	1.35	0.750			
0.1836	11749.65	4.0740	4.0741	0.7632	7.31	1.34	0.750			
0.1859	11897.58	4.0710	4.0709	0.7757	7.31	1.34	0.750			
0.1883	12049.18	4.0680	4.0680	0.7792	7.31	1.34	0.750			
0.1906	12200.12	4.0650	4.0650	0.7814	7.30	1.33	0.750			
0.1930	12350.99	4.0620	4.0621	0.7908	7.30	1.33	0.750			
0.1954	12504.42	4.0590	4.0590	0.7965	7.30	1.33	0.750			
0.1977	12655.02	4.0560	4.0559	0.7952	7.29	1.32	0.750			
0.2001	12807.70	4.0530	4.0531	0.8030	7.29	1.32	0.750			
0.2026	12965.84	4.0500	4.0500	0.7978	7.28	1.31	0.750			
0.2050	13118.92	4.0470	4.0470	0.8027	7.27	1.30	0.750			
0.2074	13272.50	4.0440	4.0441	0.8045	7.26	1.29	0.750			
0.2098	13424.70	4.0410	4.0411	0.8062	7.25	1.28	0.750			
0.2122	13579.34	4.0380	4.0379	0.8106	7.25	1.28	0.750			
0.2146	13737.29	4.0350	4.0350	0.8083	7.24	1.27	0.750			
0.2171	13892.19	4.0320	4.0320	0.8118	7.23	1.26	0.750			
0.2195	14050.14	4.0290	4.0291	0.8164	7.22	1.25	0.750			
0.2220	14205.13	4.0260	4.0261	0.8191	7.22	1.25	0.750			
0.2244	14362.05	4.0230	4.0229	0.8234	7.21	1.24	0.750			
0.2269	14523.39	4.0200	4.0200	0.8210	7.20	1.23	0.750			
0.2294	14681.07	4.0170	4.0171	0.8288	7.20	1.23	0.750			
0.2319	14841.42	4.0140	4.0140	0.8319	7.20	1.23	0.750			
0.2344	15000.11	4.0110	4.0110	0.8341	7.19	1.22	0.750			
0.2369	15159.67	4.0080	4.0080	0.8348	7.19	1.22	0.750			
0.2394	15320.05	4.0050	4.0051	0.8334	7.18	1.21	0.750			
0.2419	15481.81	4.0020	4.0021	0.8423	7.18	1.21	0.750			
0.2444	15644.64	3.9990	3.9990	0.8474	7.17	1.20	0.750			
0.2470	15806.40	3.9960	3.9960	0.8467	7.16	1.19	0.750			
0.2495	15969.82	3.9930	3.9930	0.8502	7.16	1.19	0.750			
0.2521	16134.49	3.9900	3.9900	0.8457	7.15	1.18	0.750			
0.2546	16296.19	3.9870	3.9870	0.8569	7.15	1.18	0.750			
0.2571	16457.47	3.9840	3.9841	0.8777	7.14	1.17	0.750			
0.2598	16625.14	3.9810	3.9810	0.8964	7.13	1.16	0.750			
0.2625	16799.34	3.9780	3.9779	0.9122	7.13	1.16	0.750			
0.2653	16979.59	3.9750	3.9750	0.9140	7.12	1.15	0.750			
0.2681	17160.47	3.9720	3.9723	0.9269	7.11	1.14	0.750			
0.2709	17340.54	3.9690	3.9691	0.9255	7.10	1.13	0.750			
0.2737	17517.03	3.9660	3.9655	0.9138	7.09	1.12	0.750			
0.2764	17687.95	3.9630	3.9631	0.8975	7.08	1.11	0.750			
0.2791	17860.88	3.9600	3.9602	0.9050	7.07	1.10	0.750			
0.2818	18036.92	3.9570	3.9570	0.9132	7.06	1.09	0.750			
0.2846	18211.82	3.9540	3.9540	0.9171	7.06	1.09	0.750			
0.2873	18384.24	3.9510	3.9510	0.9115	7.05	1.08	0.750			
0.2900	18560.98	3.9480	3.9480	0.9138	7.04	1.07	0.750			
0.2928	18737.48	3.9450	3.9450	0.9208	7.03	1.06	0.750			
0.2955	18914.25	3.9420	3.9422	0.9255	7.03	1.06	0.750			
0.2983	19091.24	3.9390	3.9389	0.9268	7.02	1.05	0.750			
0.3011	19270.53	3.9360	3.9360	0.9292	7.01	1.04	0.750			
0.3039	19449.08	3.9330	3.9330	0.9432	7.00	1.03	0.750			
0.3067	19630.75	3.9300	3.9300	0.9560	6.99	1.02	0.750			
0.3096	19814.75	3.9270	3.9270	0.9626	6.98	1.01	0.750			
0.3125	20002.33	3.9240	3.9242	0.9680	6.97	1.00	0.750			
0.3155	20189.13	3.9210	3.9210	0.9777	6.96	0.99	0.750			
0.3184	20377.49	3.9180	3.9181	0.9882	6.95	0.98	0.750			
0.3214	20568.39	3.9150	3.9151	0.9944	6.94	0.97	0.750			
0.3244	20759.57	3.9120	3.9120	0.9967	6.93	0.96	0.750			
0.3274	20950.95	3.9090	3.9091	0.9991	6.92	0.95	0.750			
0.3303	21141.19	3.9060	3.9061	1.0118	6.91	0.94	0.750			
0.3334	21336.08	3.9030	3.9030	1.0248	6.90	0.93	0.750			
0.3365	21534.47	3.9000	3.8997	1.0321	6.89	0.92	0.750			
0.3396	21732.36	3.8970	3.8971	1.0446	6.88	0.91	0.750			
0.3428	21936.09	3.8940	3.8941	1.0574	6.87	0.90	0.750			
0.3460	22142.93	3.8910	3.8910	1.0718	6.86	0.89	0.750			
0.3492	22349.07	3.8880	3.8879	1.0715	6.85	0.88	0.750			
0.3524	22553.27	3.8850	3.8850	1.0884	6.84	0.87	0.750			
0.3557	22762.32	3.8820	3.8820	1.1049	6.83	0.86	0.750			
0.3590	22976.77	3.8790	3.8790	1.1211	6.82	0.85	0.750			
0.3624	23194.36	3.8760	3.8760	1.1319	6.81	0.84	0.750			
0.3658	23413.38	3.8730	3.8731	1.1516	6.79	0.82	0.750			
0.3693	23636.66	3.8700	3.8700	1.1640	6.78	0.81	0.750			
0.3728	23862.04	3.8670	3.8669	1.1781	6.76	0.79	0.750			
0.3764	24087.51	3.8640	3.8641	1.1897	6.75	0.78	0.750			
0.3800	24317.69	3.8610	3.8610	1.2088	6.74	0.77	0.750			
0.3836	24551.33	3.8580	3.8580	1.2303	6.72	0.75	0.750			
0.3874	24791.39	3.8550	3.8550	1.2369	6.71	0.74	0.750			
0.3911	25027.71	3.8520	3.8521	1.2503	6.69	0.72	0.750			
0.3948	25269.45	3.8490	3.8491	1.2735	6.68	0.71	0.750			
0.3987	25517.24	3.8460	3.8458	1.2727	6.66	0.69	0.750			
0.4024	25753.91	3.8430	3.8431	1.3209	6.65	0.68	0.750			
0.4064	26009.46	3.8400	3.8401	1.3657	6.63	0.66	0.750			
0.4106	26276.22	3.8370	3.8367	1.4103	6.61	0.64	0.750	0.387	0.910	
0.4149	26554.15	3.8340	3.8343	1.4420	6.60	0.63	0.750			
0.4194	26842.54	3.8310	3.8311	1.4730	6.58	0.61	0.750			
0.4239	27128.94	3.8280	3.8280	1.4918	6.57	0.60	0.750			
0.4284	27417.11	3.8250	3.8249	1.4836	6.56	0.59	0.750			
0.4328	27696.18	3.8220	3.8220	1.5058	6.54	0.57	0.750			
0.4373	27987.64	3.8190	3.8191	1.5345	6.53	0.56	0.750			
0.4420	28287.25	3.8160	3.8158	1.5612	6.51	0.54	0.750			
0.4467	28588.57	3.8130	3.8132	1.5877	6.50	0.53	0.750			
0.4515	28895.97	3.8100	3.8100	1.6164	6.48	0.51	0.750			
0.4564	29211.38	3.8070	3.8070	1.6689	6.47	0.50	0.750			
0.4614	29531.03	3.8040	3.8040	1.6914	6.45	0.48	0.750			
0.4666	29862.41	3.8010	3.8010	1.7244	6.43	0.46	0.750			
0.4719	30200.82	3.7980	3.7980	1.7360	6.42	0.45	0.750			
0.4772	30538.97	3.7950	3.7952	1.7718	6.40	0.43	0.750			
0.4825	30881.49	3.7920	3.7921	1.8089	6.38	0.41	0.750			
0.4879	31228.14	3.7890	3.7890	1.8328	6.36	0.39	0.750			
0.4934	31579.70	3.7860	3.7859	1.8708	6.35	0.38	0.750			
0.4992	31947.36	3.7830	3.7831	1.9054	6.33	0.36	0.750			
0.5049	32316.50	3.7800	3.7799	1.9249	6.30	0.33	0.750			
0.5108	32692.48	3.7770	3.7772	1.9871	6.27	0.30	0.750			
0.5169	33082.65	3.7740	3.7739	1.9920	6.25	0.28	0.750			
0.5229	33463.43	3.7710	3.7710	1.9842	6.23	0.26	0.750			
0.5289	33846.86	3.7680	3.7681	2.0408	6.22	0.25	0.750			
0.5350	34237.24	3.7650	3.7649	2.0429	6.20	0.23	0.750			
0.5411	34631.56	3.7620	3.7620	2.0575	6.19	0.22	0.750			
0.5475	35041.71	3.7590	3.7591	2.0949	6.17	0.20	0.750			
0.5538	35443.24	3.7560	3.7560	2.1069	6.15	0.18	0.750			
0.5600	35837.88	3.7530	3.7529	2.1263	6.13	0.16	0.750			
0.5664	36252.56	3.7500	3.7502	2.2033	6.11	0.14	0.750			
0.5732	36686.67	3.7470	3.7470	2.2582	6.09	0.12	0.750			
0.5800	37122.56	3.7440	3.7438	2.2585	6.07	0.10	0.750			
0.5869	37562.56	3.7410	3.7410	2.3215	6.05	0.08	0.750			
0.5938	38002.80	3.7380	3.7379	2.3885	6.04	0.07	0.750			
0.6011	38472.33	3.7350	3.7350	2.4852	6.02	0.05	0.750			
0.6088	38964.16	3.7320	3.7320	2.5641	6.01	0.04	0.750			
0.6166	39459.52	3.7290	3.7289	2.5810	5.99	0.02	0.750			
0.6243	39953.55	3.7260	3.7261	2.6040	5.97	-0.00	0.750			
0.6322	40460.59	3.7230	3.7230	2.6008	5.96	-0.01	0.750			
0.6399	40956.63	3.7200	3.7201	2.4988	5.94	-0.03	0.750			
0.6474	41432.81	3.7170	3.7171	2.4146	5.93	-0.04	0.750			
0.6544	41883.44	3.7140	3.7139	2.2134	5.93	-0.04	0.750			
0.6609	42295.05	3.7110	3.7110	2.0329	5.92	-0.05	0.750			
0.6666	42659.99	3.7080	3.7081	1.8184	5.92	-0.05	0.750			
0.6718	42993.51	3.7050	3.7050	1.6373	5.91	-0.06	0.750			
0.6762	43276.58	3.7020	3.7021	1.4467	5.91	-0.06	0.750			
0.6803	43540.51	3.6990	3.6991	1.3025	5.91	-0.06	0.750			
0.6839	43769.09	3.6960	3.6960	1.1942	5.91	-0.06	0.750			
0.6872	43979.40	3.6930	3.6929	1.0803	5.91	-0.06	0.750			
0.6902	44172.30	3.6900	3.6900	1.0056	5.91	-0.06	0.750			
0.6930	44354.36	3.6870	3.6870	0.9425	5.91	-0.06	0.750			
0.6958	44529.64	3.6840	3.6842	0.9030	5.91	-0.06	0.750			
0.6984	44696.65	3.6810	3.6808	0.8597	5.91	-0.06	0.750			
0.7009	44855.88	3.6780	3.6781	0.8270	5.91	-0.06	0.750			
0.7033	45011.91	3.6750	3.6750	0.7909	5.92	-0.05	0.750			
0.7057	45162.91	3.6720	3.6720	0.7682	5.92	-0.05	0.750			
0.7079	45305.83	3.6690	3.6690	0.7364	5.92	-0.05	0.750			
0.7101	45445.66	3.6660	3.6661	0.7008	5.93	-0.04	0.750			
0.7121	45576.64	3.6630	3.6630	0.6624	5.93	-0.04	0.750			
0.7141	45701.27	3.6600	3.6600	0.6250	5.94	-0.03	0.750			
0.7159	45816.95	3.6570	3.6571	0.5842	5.94	-0.03	0.750			
0.7176	45926.23	3.6540	3.6539	0.5490	5.95	-0.02	0.750			
0.7192	46025.84	3.6510	3.6510	0.5049	5.96	-0.01	0.750			
0.7206	46118.34	3.6480	3.6480	0.4660	5.96	-0.01	0.750			
0.7220	46205.47	3.6450	3.6450	0.4327	5.96	-0.01	0.750			
0.7232	46285.38	3.6420	3.6420	0.3943	5.97	-0.00	0.750			
0.7243	46357.35	3.6390	3.6390	0.3574	5.97	0.00	0.750			
0.7253	46421.63	3.6360	3.6360	0.3216	5.98	0.01	0.750			
0.7262	46479.65	3.6330	3.6330	0.2871	5.98	0.01	0.750			
0.7271	46532.56	3.6300	3.6298	0.2514	5.98	0.01	0.750			
0.7278	46577.28	3.6270	3.6270	0.2146	5.98	0.01	0.750			
0.7284	46615.73	3.6240	3.6241	0.1791	5.98	0.01	0.750			
0.7289	46647.95	3.6210	3.6211	0.1420	5.99	0.02	0.750			
0.7293	46672.16	3.6180	3.6184	0.1008	5.99	0.02	0.750			
0.7295	46687.49	3.6150	3.6158	0.0586	5.99	0.02	0.750			
0.7296	46694.69	3.6120	3.6141	0.0164	5.99	0.02	0.750			
