Ah_balance (normalized)	Ah_balance (mAh)	Voltage - fit (V)	Voltage -  interpolate (V)	dQ/dV (1/V)	Temperature (°C)	Temperature - diff (°C)	Current (C)	R_DC 0ms (mOhm)	R_DC 50ms (mOhm)	R_DC 50 ms PEC (mOhm)
0.1841	11783.57	4.0790	4.0789	0.7847	7.46	1.48	0.750			
0.1864	11929.79	4.0760	4.0761	0.7711	7.46	1.48	0.750			
0.1887	12077.36	4.0730	4.0731	0.7773	7.46	1.48	0.750			
0.1911	12227.87	4.0700	4.0700	0.7825	7.45	1.47	0.750			
0.1934	12378.83	4.0670	4.0669	0.7866	7.45	1.47	0.750			
0.1958	12530.68	4.0640	4.0641	0.7851	7.44	1.46	0.750			
0.1982	12682.42	4.0610	4.0611	0.7917	7.44	1.46	0.750			
0.2005	12835.02	4.0580	4.0580	0.7967	7.44	1.46	0.750			
0.2029	12986.84	4.0550	4.0550	0.7961	7.43	1.45	0.750			
0.2053	13139.42	4.0520	4.0519	0.7987	7.43	1.45	0.750			
0.2077	13294.02	4.0490	4.0490	0.8058	7.43	1.45	0.750			
0.2102	13450.73	4.0460	4.0460	0.8042	7.42	1.44	0.750			
0.2126	13604.57	4.0430	4.0430	0.8064	7.42	1.44	0.750			
0.2150	13758.09	4.0400	4.0401	0.8055	7.41	1.43	0.750			
0.2174	13913.01	4.0370	4.0368	0.8119	7.41	1.43	0.750			
0.2198	14068.19	4.0340	4.0340	0.8158	7.40	1.42	0.750			
0.2223	14225.85	4.0310	4.0310	0.8185	7.40	1.42	0.750			
0.2248	14384.59	4.0280	4.0280	0.8234	7.39	1.41	0.750			
0.2272	14543.39	4.0250	4.0250	0.8239	7.38	1.40	0.750			
0.2297	14701.68	4.0220	4.0220	0.8252	7.37	1.39	0.750			
0.2322	14859.83	4.0190	4.0190	0.8260	7.36	1.38	0.750			
0.2347	15018.78	4.0160	4.0160	0.8241	7.36	1.38	0.750			
0.2371	15176.06	4.0130	4.0130	0.8289	7.35	1.37	0.750			
0.2396	15333.83	4.0100	4.0100	0.8383	7.34	1.36	0.750			
0.2421	15496.08	4.0070	4.0068	0.8457	7.33	1.35	0.750			
0.2447	15659.12	4.0040	4.0040	0.8528	7.33	1.35	0.750			
0.2473	15825.01	4.0010	4.0011	0.8541	7.32	1.34	0.750			
0.2499	15991.58	3.9980	3.9981	0.8600	7.31	1.33	0.750			
0.2524	16156.56	3.9950	3.9950	0.8556	7.31	1.33	0.750			
0.2550	16320.51	3.9920	3.9917	0.8566	7.30	1.32	0.750			
0.2575	16482.28	3.9890	3.9890	0.8556	7.29	1.31	0.750			
0.2601	16647.64	3.9860	3.9861	0.8632	7.28	1.30	0.750			
0.2627	16814.22	3.9830	3.9829	0.8727	7.28	1.30	0.750			
0.2654	16983.43	3.9800	3.9800	0.8792	7.27	1.29	0.750			
0.2680	17152.78	3.9770	3.9770	0.8774	7.26	1.28	0.750			
0.2707	17322.72	3.9740	3.9740	0.8772	7.25	1.27	0.750			
0.2733	17490.65	3.9710	3.9711	0.8809	7.24	1.26	0.750			
0.2759	17659.55	3.9680	3.9680	0.8820	7.23	1.25	0.750			
0.2785	17827.05	3.9650	3.9650	0.8870	7.22	1.24	0.750			
0.2812	17996.52	3.9620	3.9620	0.8971	7.21	1.23	0.750			
0.2839	18171.01	3.9590	3.9590	0.9068	7.20	1.22	0.750			
0.2867	18347.84	3.9560	3.9560	0.9145	7.19	1.21	0.750			
0.2895	18524.82	3.9530	3.9530	0.9173	7.18	1.20	0.750			
0.2922	18700.27	3.9500	3.9499	0.9160	7.17	1.19	0.750			
0.2950	18877.71	3.9470	3.9470	0.9190	7.16	1.18	0.750			
0.2977	19052.08	3.9440	3.9439	0.9228	7.15	1.17	0.750			
0.3004	19227.94	3.9410	3.9410	0.9281	7.13	1.15	0.750			
0.3033	19408.16	3.9380	3.9381	0.9385	7.12	1.14	0.750			
0.3061	19589.07	3.9350	3.9350	0.9467	7.11	1.13	0.750			
0.3089	19772.47	3.9320	3.9320	0.9444	7.10	1.12	0.750			
0.3118	19952.67	3.9290	3.9291	0.9548	7.09	1.11	0.750			
0.3146	20135.81	3.9260	3.9260	0.9635	7.08	1.10	0.750			
0.3175	20321.02	3.9230	3.9226	0.9693	7.07	1.09	0.750			
0.3204	20506.69	3.9200	3.9201	0.9814	7.06	1.08	0.750			
0.3234	20695.52	3.9170	3.9171	0.9779	7.05	1.07	0.750			
0.3263	20884.73	3.9140	3.9141	0.9909	7.04	1.06	0.750			
0.3293	21073.64	3.9110	3.9108	0.9933	7.03	1.05	0.750			
0.3323	21266.84	3.9080	3.9081	0.9951	7.03	1.05	0.750			
0.3353	21457.24	3.9050	3.9051	1.0134	7.02	1.04	0.750			
0.3383	21654.13	3.9020	3.9021	1.0279	7.02	1.04	0.750			
0.3415	21857.27	3.8990	3.8989	1.0514	7.01	1.03	0.750			
0.3446	22055.95	3.8960	3.8961	1.0398	7.00	1.02	0.750			
0.3477	22254.07	3.8930	3.8931	1.0604	6.99	1.01	0.750			
0.3509	22460.41	3.8900	3.8901	1.0757	6.98	1.00	0.750			
0.3542	22669.89	3.8870	3.8868	1.0938	6.97	0.99	0.750			
0.3575	22878.02	3.8840	3.8841	1.0922	6.96	0.98	0.750			
0.3608	23090.57	3.8810	3.8810	1.1094	6.95	0.97	0.750			
0.3641	23304.12	3.8780	3.8781	1.1231	6.94	0.96	0.750			
0.3676	23528.53	3.8750	3.8746	1.1181	6.93	0.95	0.750			
0.3709	23737.72	3.8720	3.8721	1.1282	6.92	0.94	0.750			
0.3743	23953.59	3.8690	3.8691	1.1505	6.92	0.94	0.750			
0.3777	24173.92	3.8660	3.8661	1.1676	6.91	0.93	0.750			
0.3812	24399.60	3.8630	3.8632	1.1766	6.91	0.93	0.750			
0.3848	24626.50	3.8600	3.8601	1.2015	6.89	0.91	0.750			
0.3885	24860.86	3.8570	3.8572	1.2265	6.88	0.90	0.750			
0.3922	25103.52	3.8540	3.8535	1.2433	6.87	0.89	0.750			
0.3960	25341.67	3.8510	3.8510	1.2534	6.86	0.88	0.750			
0.3997	25580.76	3.8480	3.8482	1.2812	6.86	0.88	0.750			
0.4035	25826.64	3.8450	3.8450	1.3164	6.85	0.87	0.750			
0.4075	26082.53	3.8420	3.8420	1.3611	6.84	0.86	0.750			
0.4117	26346.03	3.8390	3.8384	1.3847	6.83	0.85	0.750	0.392	0.937	
0.4159	26620.59	3.8360	3.8362	1.4036	6.82	0.84	0.750			
0.4203	26898.33	3.8330	3.8331	1.4438	6.80	0.82	0.750			
0.4246	27176.98	3.8300	3.8300	1.4525	6.78	0.80	0.750			
0.4290	27453.34	3.8270	3.8268	1.4655	6.76	0.78	0.750			
0.4333	27729.41	3.8240	3.8242	1.5080	6.75	0.77	0.750			
0.4377	28015.60	3.8210	3.8207	1.5880	6.74	0.76	0.750			
0.4425	28322.94	3.8180	3.8177	1.5789	6.73	0.75	0.750			
0.4474	28633.56	3.8150	3.8150	1.6253	6.72	0.74	0.750			
0.4524	28952.40	3.8120	3.8122	1.6666	6.71	0.73	0.750			
0.4575	29280.27	3.8090	3.8089	1.6632	6.70	0.72	0.750			
0.4624	29594.98	3.8060	3.8062	1.6899	6.69	0.71	0.750			
0.4676	29925.01	3.8030	3.8040	1.8074	6.67	0.69	0.750			
0.4728	30256.47	3.8000	3.7990	1.7878	6.65	0.67	0.750			
0.4782	30604.21	3.7970	3.7976	1.8239	6.64	0.66	0.750			
0.4839	30972.76	3.7940	3.7936	1.8805	6.61	0.63	0.750			
0.4893	31313.59	3.7910	3.7909	1.8407	6.59	0.61	0.750			
0.4951	31686.03	3.7880	3.7878	1.9304	6.56	0.58	0.750			
0.5006	32038.69	3.7850	3.7851	1.8775	6.54	0.56	0.750			
0.5064	32409.48	3.7820	3.7820	1.9286	6.53	0.55	0.750			
0.5122	32779.31	3.7790	3.7792	1.9541	6.51	0.53	0.750			
0.5181	33159.27	3.7760	3.7761	1.9933	6.49	0.51	0.750			
0.5242	33547.27	3.7730	3.7729	2.0100	6.47	0.49	0.750			
0.5303	33937.94	3.7700	3.7703	2.0085	6.45	0.47	0.750			
0.5362	34315.47	3.7670	3.7669	2.0364	6.43	0.45	0.750			
0.5423	34704.32	3.7640	3.7639	2.0691	6.41	0.43	0.750			
0.5486	35110.40	3.7610	3.7611	2.1244	6.39	0.41	0.750			
0.5550	35519.21	3.7580	3.7580	2.1694	6.36	0.38	0.750			
0.5617	35950.60	3.7550	3.7549	2.1934	6.34	0.36	0.750			
0.5683	36370.38	3.7520	3.7521	2.1913	6.32	0.34	0.750			
0.5749	36790.79	3.7490	3.7489	2.2433	6.29	0.31	0.750			
0.5816	37222.47	3.7460	3.7460	2.3589	6.27	0.29	0.750			
0.5889	37686.58	3.7430	3.7429	2.4220	6.24	0.26	0.750			
0.5962	38155.63	3.7400	3.7402	2.4665	6.21	0.23	0.750			
0.6038	38646.24	3.7370	3.7369	2.5317	6.18	0.20	0.750			
0.6115	39133.48	3.7340	3.7339	2.5903	6.15	0.17	0.750			
0.6195	39648.50	3.7310	3.7308	2.6009	6.12	0.14	0.750			
0.6272	40141.32	3.7280	3.7280	2.5599	6.10	0.12	0.750			
0.6347	40618.61	3.7250	3.7250	2.5959	6.08	0.10	0.750			
0.6427	41134.52	3.7220	3.7220	2.5566	6.05	0.07	0.750			
0.6505	41631.40	3.7190	3.7192	2.4769	6.04	0.06	0.750			
0.6576	42085.21	3.7160	3.7159	2.2831	6.02	0.04	0.750			
0.6642	42511.96	3.7130	3.7130	2.0581	6.01	0.03	0.750			
0.6702	42894.12	3.7100	3.7101	1.8959	6.00	0.02	0.750			
0.6755	43229.22	3.7070	3.7071	1.6481	5.99	0.01	0.750			
0.6799	43515.45	3.7040	3.7038	1.4521	5.99	0.01	0.750			
0.6839	43766.46	3.7010	3.7010	1.2816	5.98	0.00	0.750			
0.6872	43979.80	3.6980	3.6980	1.1416	5.98	-0.00	0.750			
0.6904	44185.80	3.6950	3.6951	1.0489	5.97	-0.01	0.750			
0.6934	44374.98	3.6920	3.6920	0.9674	5.97	-0.01	0.750			
0.6962	44554.06	3.6890	3.6889	0.9140	5.97	-0.01	0.750			
0.6988	44721.55	3.6860	3.6861	0.8650	5.97	-0.01	0.750			
0.7013	44881.68	3.6830	3.6829	0.8229	5.97	-0.01	0.750			
0.7037	45036.25	3.6800	3.6801	0.7834	5.97	-0.01	0.750			
0.7060	45182.49	3.6770	3.6770	0.7453	5.97	-0.01	0.750			
0.7082	45322.66	3.6740	3.6741	0.7035	5.97	-0.01	0.750			
0.7103	45456.50	3.6710	3.6709	0.6620	5.97	-0.01	0.750			
0.7122	45579.05	3.6680	3.6680	0.6141	5.98	-0.00	0.750			
0.7139	45691.52	3.6650	3.6651	0.5718	5.98	-0.00	0.750			
0.7156	45797.26	3.6620	3.6620	0.5300	5.98	-0.00	0.750			
0.7171	45894.42	3.6590	3.6588	0.4877	5.98	-0.00	0.750			
0.7185	45983.60	3.6560	3.6561	0.4487	5.98	0.00	0.750			
0.7198	46066.73	3.6530	3.6530	0.4128	5.98	0.00	0.750			
0.7210	46141.70	3.6500	3.6500	0.3743	5.98	0.00	0.750			
0.7220	46209.68	3.6470	3.6470	0.3371	5.98	0.00	0.750			
0.7230	46269.95	3.6440	3.6439	0.2987	5.98	0.00	0.750			
0.7238	46324.84	3.6410	3.6411	0.2656	5.99	0.01	0.750			
0.7246	46372.90	3.6380	3.6380	0.2280	5.99	0.01	0.750			
0.7252	46413.43	3.6350	3.6350	0.1909	5.99	0.01	0.750			
0.7257	46447.08	3.6320	3.6319	0.1530	5.99	0.01	0.750			
0.7261	46472.06	3.6290	3.6293	0.1136	5.99	0.01	0.750			
0.7264	46490.65	3.6260	3.6266	0.0735	5.99	0.01	0.750			
0.7266	46501.01	3.6230	3.6241	0.0294	5.99	0.01	0.750			
