Ah_balance (normalized)	Ah_balance (mAh)	Voltage - fit (V)	Voltage -  interpolate (V)	dQ/dV (1/V)	Temperature (°C)	Temperature - diff (°C)	Current (C)	R_DC 0ms (mOhm)	R_DC 50ms (mOhm)	R_DC 50 ms PEC (mOhm)
0.0941	6025.30	4.0060	4.0054	-0.0849	5.98	0.00	-0.750			
0.0944	6044.55	4.0030	4.0028	-0.1156	5.98	0.00	-0.750			
0.0948	6070.24	4.0000	3.9999	-0.1452	5.98	0.00	-0.750			
0.0953	6102.37	3.9970	3.9969	-0.1685	5.98	0.00	-0.750			
0.0959	6137.16	3.9940	3.9940	-0.1916	5.98	0.00	-0.750			
0.0965	6175.89	3.9910	3.9912	-0.2179	5.98	0.00	-0.750			
0.0972	6220.77	3.9880	3.9883	-0.2427	5.98	0.00	-0.750			
0.0980	6269.05	3.9850	3.9848	-0.2661	5.98	0.00	-0.750			
0.0988	6322.20	3.9820	3.9820	-0.2895	5.98	0.00	-0.750			
0.0997	6380.06	3.9790	3.9791	-0.3149	5.98	0.00	-0.750			
0.1007	6442.66	3.9760	3.9760	-0.3417	5.98	-0.00	-0.750			
0.1017	6511.16	3.9730	3.9730	-0.3667	5.98	-0.00	-0.750			
0.1029	6583.46	3.9700	3.9699	-0.3925	5.98	-0.00	-0.750			
0.1041	6661.42	3.9670	3.9671	-0.4175	5.98	-0.00	-0.750			
0.1054	6744.36	3.9640	3.9638	-0.4458	5.98	-0.00	-0.750			
0.1067	6831.64	3.9610	3.9611	-0.4778	5.97	-0.01	-0.750			
0.1082	6927.65	3.9580	3.9579	-0.5001	5.97	-0.01	-0.750			
0.1098	7026.54	3.9550	3.9549	-0.5242	5.97	-0.01	-0.750			
0.1114	7130.66	3.9520	3.9519	-0.5444	5.97	-0.01	-0.750			
0.1131	7237.09	3.9490	3.9491	-0.5653	5.97	-0.01	-0.750			
0.1148	7348.14	3.9460	3.9459	-0.5800	5.97	-0.01	-0.750			
0.1166	7460.02	3.9430	3.9430	-0.5943	5.97	-0.01	-0.750			
0.1183	7573.86	3.9400	3.9401	-0.6101	5.97	-0.01	-0.750			
0.1202	7695.27	3.9370	3.9370	-0.6305	5.97	-0.01	-0.750			
0.1222	7817.63	3.9340	3.9340	-0.6449	5.97	-0.01	-0.750			
0.1241	7943.35	3.9310	3.9310	-0.6578	5.97	-0.01	-0.750			
0.1261	8070.60	3.9280	3.9281	-0.6709	5.97	-0.01	-0.750			
0.1281	8201.26	3.9250	3.9250	-0.6860	5.97	-0.01	-0.750			
0.1302	8333.71	3.9220	3.9219	-0.6957	5.98	-0.00	-0.750			
0.1323	8469.49	3.9190	3.9190	-0.7048	5.98	0.00	-0.750			
0.1345	8607.01	3.9160	3.9158	-0.7110	5.99	0.01	-0.750			
0.1366	8744.45	3.9130	3.9132	-0.7181	5.99	0.01	-0.750			
0.1388	8883.27	3.9100	3.9099	-0.7225	5.99	0.01	-0.750			
0.1410	9020.82	3.9070	3.9069	-0.7268	6.00	0.02	-0.750			
0.1431	9160.88	3.9040	3.9038	-0.7373	6.00	0.02	-0.750			
0.1454	9302.92	3.9010	3.9011	-0.7400	6.00	0.02	-0.750			
0.1476	9447.38	3.8980	3.8980	-0.7516	6.01	0.03	-0.750			
0.1499	9593.26	3.8950	3.8953	-0.7549	6.01	0.03	-0.750			
0.1522	9738.00	3.8920	3.8919	-0.7576	6.02	0.04	-0.750			
0.1544	9881.99	3.8890	3.8890	-0.7624	6.02	0.04	-0.750			
0.1567	10029.66	3.8860	3.8859	-0.7600	6.03	0.05	-0.750			
0.1590	10177.65	3.8830	3.8830	-0.7641	6.04	0.06	-0.750			
0.1613	10322.10	3.8800	3.8800	-0.7716	6.05	0.07	-0.750			
0.1636	10468.99	3.8770	3.8769	-0.7746	6.05	0.07	-0.750			
0.1659	10618.96	3.8740	3.8738	-0.7806	6.06	0.08	-0.750			
0.1682	10767.95	3.8710	3.8711	-0.7818	6.06	0.08	-0.750			
0.1706	10919.45	3.8680	3.8682	-0.7805	6.07	0.09	-0.750			
0.1730	11073.01	3.8650	3.8648	-0.7859	6.08	0.10	-0.750			
0.1753	11222.38	3.8620	3.8623	-0.7871	6.08	0.10	-0.750			
0.1777	11372.02	3.8590	3.8589	-0.7831	6.09	0.11	-0.750			
0.1800	11521.91	3.8560	3.8560	-0.7945	6.09	0.11	-0.750			
0.1825	11677.09	3.8530	3.8530	-0.7958	6.10	0.12	-0.750			
0.1849	11831.12	3.8500	3.8499	-0.7973	6.10	0.12	-0.750			
0.1873	11984.24	3.8470	3.8470	-0.7981	6.11	0.13	-0.750			
0.1896	12137.05	3.8440	3.8439	-0.7961	6.12	0.14	-0.750			
0.1920	12288.35	3.8410	3.8410	-0.7974	6.12	0.14	-0.750			
0.1944	12441.30	3.8380	3.8380	-0.7973	6.13	0.15	-0.750			
0.1968	12593.77	3.8350	3.8350	-0.8016	6.14	0.16	-0.750			
0.1992	12749.52	3.8320	3.8319	-0.8027	6.15	0.17	-0.750			
0.2016	12903.31	3.8290	3.8291	-0.8050	6.16	0.18	-0.750			
0.2040	13056.38	3.8260	3.8260	-0.8089	6.16	0.18	-0.750			
0.2065	13213.28	3.8230	3.8229	-0.8047	6.17	0.19	-0.750			
0.2089	13367.70	3.8200	3.8200	-0.8014	6.18	0.20	-0.750			
0.2113	13520.88	3.8170	3.8170	-0.8069	6.19	0.21	-0.750			
0.2137	13676.35	3.8140	3.8138	-0.8073	6.19	0.21	-0.750			
0.2161	13831.07	3.8110	3.8109	-0.8101	6.20	0.22	-0.750			
0.2185	13986.41	3.8080	3.8081	-0.8068	6.21	0.23	-0.750			
0.2210	14142.68	3.8050	3.8050	-0.8020	6.22	0.24	-0.750			
0.2234	14298.06	3.8020	3.8018	-0.8114	6.22	0.24	-0.750			
0.2258	14452.08	3.7990	3.7992	-0.8087	6.23	0.25	-0.750			
0.2282	14604.61	3.7960	3.7959	-0.8116	6.24	0.26	-0.750			
0.2307	14763.00	3.7930	3.7930	-0.8122	6.25	0.27	-0.750			
0.2331	14917.53	3.7900	3.7900	-0.8088	6.26	0.28	-0.750			
0.2356	15075.62	3.7870	3.7869	-0.8162	6.26	0.28	-0.750			
0.2380	15234.95	3.7840	3.7841	-0.8146	6.27	0.29	-0.750			
0.2404	15388.19	3.7810	3.7811	-0.8068	6.28	0.30	-0.750			
0.2429	15542.93	3.7780	3.7780	-0.8128	6.29	0.31	-0.750			
0.2453	15700.11	3.7750	3.7749	-0.8107	6.30	0.32	-0.750			
0.2478	15856.57	3.7720	3.7719	-0.8156	6.31	0.33	-0.750			
0.2502	16011.52	3.7690	3.7693	-0.8107	6.32	0.34	-0.750			
0.2526	16167.36	3.7660	3.7660	-0.8148	6.33	0.35	-0.750			
0.2551	16324.60	3.7630	3.7629	-0.8211	6.34	0.36	-0.750			
0.2575	16481.82	3.7600	3.7599	-0.8159	6.34	0.36	-0.750			
0.2600	16639.85	3.7570	3.7570	-0.8203	6.35	0.37	-0.750			
0.2625	16797.65	3.7540	3.7543	-0.8211	6.36	0.38	-0.750			
0.2649	16954.93	3.7510	3.7509	-0.8198	6.37	0.39	-0.750			
0.2674	17112.15	3.7480	3.7479	-0.8249	6.37	0.39	-0.750			
0.2698	17268.29	3.7450	3.7450	-0.8200	6.38	0.40	-0.750			
0.2723	17427.36	3.7420	3.7419	-0.8292	6.38	0.40	-0.750			
0.2748	17587.72	3.7390	3.7391	-0.8289	6.39	0.41	-0.750			
0.2773	17745.92	3.7360	3.7360	-0.8318	6.40	0.42	-0.750			
0.2798	17905.38	3.7330	3.7330	-0.8379	6.41	0.43	-0.750			
0.2823	18068.29	3.7300	3.7300	-0.8367	6.41	0.43	-0.750			
0.2848	18228.13	3.7270	3.7270	-0.8369	6.42	0.44	-0.750			
0.2874	18391.00	3.7240	3.7242	-0.8434	6.43	0.45	-0.750			
0.2899	18551.48	3.7210	3.7209	-0.8461	6.44	0.46	-0.750			
0.2924	18714.62	3.7180	3.7179	-0.8575	6.45	0.47	-0.750			
0.2950	18880.59	3.7150	3.7149	-0.8542	6.45	0.47	-0.750			
0.2976	19046.66	3.7120	3.7119	-0.8629	6.46	0.48	-0.750			
0.3002	19211.73	3.7090	3.7095	-0.8747	6.47	0.49	-0.750			
0.3028	19378.86	3.7060	3.7059	-0.8784	6.48	0.50	-0.750			
0.3054	19546.10	3.7030	3.7028	-0.8827	6.49	0.51	-0.750			
0.3081	19716.62	3.7000	3.7001	-0.8865	6.50	0.52	-0.750			
0.3108	19889.87	3.6970	3.6971	-0.9023	6.50	0.52	-0.750			
0.3135	20063.88	3.6940	3.6940	-0.9077	6.51	0.53	-0.750			
0.3162	20236.60	3.6910	3.6911	-0.9164	6.52	0.54	-0.750			
0.3189	20412.75	3.6880	3.6880	-0.9220	6.52	0.54	-0.750			
0.3218	20592.21	3.6850	3.6849	-0.9327	6.52	0.54	-0.750			
0.3246	20772.31	3.6820	3.6822	-0.9439	6.53	0.55	-0.750			
0.3274	20954.46	3.6790	3.6790	-0.9591	6.53	0.55	-0.750			
0.3303	21139.38	3.6760	3.6760	-0.9589	6.54	0.56	-0.750			
0.3332	21324.83	3.6730	3.6729	-0.9610	6.54	0.56	-0.750			
0.3361	21507.47	3.6700	3.6699	-0.9756	6.55	0.57	-0.750			
0.3390	21697.86	3.6670	3.6670	-0.9911	6.55	0.57	-0.750			
0.3420	21889.57	3.6640	3.6638	-1.0034	6.56	0.58	-0.750			
0.3450	22082.57	3.6610	3.6610	-1.0155	6.56	0.58	-0.750			
0.3481	22278.25	3.6580	3.6581	-1.0278	6.57	0.59	-0.750			
0.3512	22479.76	3.6550	3.6551	-1.0580	6.57	0.59	-0.750			
0.3545	22686.66	3.6520	3.6518	-1.0620	6.58	0.60	-0.750			
0.3576	22888.64	3.6490	3.6490	-1.0725	6.59	0.61	-0.750			
0.3609	23096.50	3.6460	3.6460	-1.0809	6.60	0.62	-0.750			
0.3642	23307.82	3.6430	3.6429	-1.0939	6.61	0.63	-0.750			
0.3675	23517.51	3.6400	3.6399	-1.0994	6.61	0.63	-0.750			
0.3707	23727.20	3.6370	3.6370	-1.1120	6.61	0.63	-0.750			
0.3740	23939.16	3.6340	3.6341	-1.1282	6.61	0.63	-0.750			
0.3775	24161.39	3.6310	3.6308	-1.1583	6.61	0.63	-0.750			
0.3810	24384.03	3.6280	3.6280	-1.1706	6.62	0.64	-0.750			
0.3846	24613.16	3.6250	3.6249	-1.1899	6.63	0.65	-0.750			
0.3882	24844.01	3.6220	3.6222	-1.2114	6.63	0.65	-0.750			
0.3919	25080.14	3.6190	3.6189	-1.2267	6.64	0.66	-0.750			
0.3956	25316.71	3.6160	3.6159	-1.2362	6.65	0.67	-0.750			
0.3993	25552.94	3.6130	3.6129	-1.2463	6.66	0.68	-0.750			
0.4031	25801.00	3.6100	3.6099	-1.2477	6.66	0.68	-0.750			
0.4068	26037.64	3.6070	3.6070	-1.2617	6.67	0.69	-0.750			
0.4106	26275.93	3.6040	3.6040	-1.2785	6.67	0.69	-0.750			
0.4144	26521.31	3.6010	3.6011	-1.2965	6.67	0.69	-0.750	0.465	1.069	
0.4183	26773.26	3.5980	3.5981	-1.3174	6.68	0.70	-0.750			
0.4223	27027.08	3.5950	3.5949	-1.3487	6.69	0.71	-0.750			
0.4264	27292.67	3.5920	3.5921	-1.3680	6.69	0.71	-0.750			
0.4307	27564.20	3.5890	3.5888	-1.3833	6.69	0.71	-0.750			
0.4348	27824.29	3.5860	3.5859	-1.3953	6.70	0.72	-0.750			
0.4390	28093.05	3.5830	3.5832	-1.4015	6.70	0.72	-0.750			
0.4432	28365.37	3.5800	3.5799	-1.4212	6.70	0.72	-0.750			
0.4475	28639.37	3.5770	3.5768	-1.4354	6.71	0.73	-0.750			
0.4518	28913.30	3.5740	3.5741	-1.4409	6.71	0.73	-0.750			
0.4562	29196.77	3.5710	3.5710	-1.4663	6.72	0.74	-0.750			
0.4606	29480.06	3.5680	3.5679	-1.4942	6.73	0.75	-0.750			
0.4651	29765.03	3.5650	3.5650	-1.4993	6.73	0.75	-0.750			
0.4697	30061.20	3.5620	3.5619	-1.5249	6.74	0.76	-0.750			
0.4743	30356.27	3.5590	3.5588	-1.5461	6.75	0.77	-0.750			
0.4790	30654.86	3.5560	3.5559	-1.5640	6.75	0.77	-0.750			
0.4837	30957.78	3.5530	3.5531	-1.5852	6.75	0.77	-0.750			
0.4885	31262.03	3.5500	3.5501	-1.5983	6.75	0.77	-0.750			
0.4933	31569.85	3.5470	3.5472	-1.6222	6.76	0.78	-0.750			
0.4982	31884.22	3.5440	3.5440	-1.6350	6.77	0.79	-0.750			
0.5031	32201.31	3.5410	3.5408	-1.6474	6.77	0.79	-0.750			
0.5081	32517.96	3.5380	3.5379	-1.6679	6.77	0.79	-0.750			
0.5131	32840.30	3.5350	3.5350	-1.6889	6.77	0.79	-0.750			
0.5182	33167.35	3.5320	3.5321	-1.6996	6.78	0.80	-0.750			
0.5234	33495.90	3.5290	3.5289	-1.6923	6.79	0.81	-0.750			
0.5284	33820.77	3.5260	3.5259	-1.7057	6.80	0.82	-0.750			
0.5336	34149.86	3.5230	3.5230	-1.7080	6.80	0.82	-0.750			
0.5386	34472.68	3.5200	3.5200	-1.7275	6.81	0.83	-0.750			
0.5438	34802.80	3.5170	3.5170	-1.7299	6.82	0.84	-0.750			
0.5490	35137.64	3.5140	3.5140	-1.7378	6.82	0.84	-0.750			
0.5543	35478.10	3.5110	3.5110	-1.7352	6.82	0.84	-0.750			
0.5596	35815.35	3.5080	3.5079	-1.7490	6.83	0.85	-0.750			
0.5648	36148.14	3.5050	3.5048	-1.7334	6.84	0.86	-0.750			
0.5700	36481.92	3.5020	3.5020	-1.7356	6.85	0.87	-0.750			
0.5752	36812.97	3.4990	3.4989	-1.7231	6.87	0.89	-0.750			
0.5803	37139.03	3.4960	3.4959	-1.7138	6.88	0.90	-0.750			
0.5855	37470.40	3.4930	3.4929	-1.7051	6.89	0.91	-0.750			
0.5906	37798.71	3.4900	3.4898	-1.6964	6.89	0.91	-0.750			
0.5957	38123.93	3.4870	3.4868	-1.6754	6.90	0.92	-0.750			
0.6007	38446.15	3.4840	3.4841	-1.6574	6.91	0.93	-0.750			
0.6056	38760.98	3.4810	3.4814	-1.6414	6.92	0.94	-0.750			
0.6104	39065.38	3.4780	3.4777	-1.6101	6.93	0.95	-0.750			
0.6152	39370.11	3.4750	3.4748	-1.5969	6.93	0.95	-0.750			
0.6201	39685.22	3.4720	3.4718	-1.5904	6.94	0.96	-0.750			
0.6249	39994.28	3.4690	3.4692	-1.5699	6.95	0.97	-0.750			
0.6295	40287.73	3.4660	3.4659	-1.5284	6.96	0.98	-0.750			
0.6341	40579.55	3.4630	3.4633	-1.4990	6.98	1.00	-0.750			
0.6385	40865.13	3.4600	3.4599	-1.4929	6.99	1.01	-0.750			
0.6429	41147.95	3.4570	3.4568	-1.4704	7.00	1.02	-0.750			
0.6473	41425.43	3.4540	3.4540	-1.4619	7.01	1.03	-0.750			
0.6517	41711.45	3.4510	3.4511	-1.4455	7.01	1.03	-0.750			
0.6561	41987.51	3.4480	3.4479	-1.4200	7.02	1.04	-0.750			
0.6602	42255.76	3.4450	3.4449	-1.3986	7.03	1.05	-0.750			
0.6644	42519.59	3.4420	3.4418	-1.3556	7.04	1.06	-0.750			
0.6684	42780.54	3.4390	3.4390	-1.3364	7.05	1.07	-0.750			
0.6724	43033.71	3.4360	3.4360	-1.3134	7.06	1.08	-0.750			
0.6763	43281.20	3.4330	3.4331	-1.2739	7.07	1.09	-0.750			
0.6801	43527.74	3.4300	3.4299	-1.2627	7.09	1.11	-0.750			
0.6838	43763.77	3.4270	3.4270	-1.2294	7.10	1.12	-0.750			
0.6875	43997.09	3.4240	3.4242	-1.1956	7.11	1.13	-0.750			
0.6911	44230.66	3.4210	3.4209	-1.1787	7.12	1.14	-0.750			
0.6946	44453.91	3.4180	3.4180	-1.1435	7.13	1.15	-0.750			
0.6979	44668.76	3.4150	3.4149	-1.1165	7.14	1.16	-0.750			
0.7013	44881.10	3.4120	3.4120	-1.0930	7.15	1.17	-0.750			
0.7045	45085.36	3.4090	3.4089	-1.0576	7.16	1.18	-0.750			
0.7076	45286.09	3.4060	3.4060	-1.0309	7.17	1.19	-0.750			
0.7106	45480.73	3.4030	3.4030	-0.9951	7.18	1.20	-0.750			
0.7137	45674.64	3.4000	3.4000	-0.9769	7.18	1.20	-0.750			
0.7165	45856.93	3.3970	3.3970	-0.9495	7.20	1.22	-0.750			
0.7193	46035.73	3.3940	3.3940	-0.9197	7.21	1.23	-0.750			
0.7220	46209.01	3.3910	3.3909	-0.8917	7.22	1.24	-0.750			
0.7247	46379.24	3.3880	3.3881	-0.8641	7.23	1.25	-0.750			
0.7272	46541.86	3.3850	3.3851	-0.8388	7.24	1.26	-0.750			
0.7297	46699.87	3.3820	3.3818	-0.8145	7.25	1.27	-0.750			
0.7321	46852.19	3.3790	3.3791	-0.7880	7.26	1.28	-0.750			
0.7344	46999.89	3.3760	3.3759	-0.7706	7.27	1.29	-0.750			
0.7367	47147.29	3.3730	3.3731	-0.7493	7.28	1.30	-0.750			
0.7389	47288.01	3.3700	3.3700	-0.7137	7.29	1.31	-0.750			
