Ah_balance (normalized)	Ah_balance (mAh)	Voltage - fit (V)	Voltage -  interpolate (V)	dQ/dV (1/V)	Temperature (°C)	Temperature - diff (°C)	Current (C)	R_DC 0ms (mOhm)	R_DC 50ms (mOhm)	R_DC 50 ms PEC (mOhm)
0.1769	11323.14	4.0820	4.0820	0.7350	7.58	1.59	0.750			
0.1791	11465.59	4.0790	4.0790	0.7501	7.58	1.59	0.750			
0.1814	11612.19	4.0760	4.0761	0.7677	7.57	1.58	0.750			
0.1838	11762.17	4.0730	4.0730	0.7777	7.56	1.57	0.750			
0.1862	11913.84	4.0700	4.0700	0.7805	7.55	1.56	0.750			
0.1885	12063.70	4.0670	4.0671	0.7864	7.55	1.56	0.750			
0.1909	12215.05	4.0640	4.0641	0.7872	7.54	1.55	0.750			
0.1932	12367.89	4.0610	4.0608	0.7746	7.53	1.54	0.750			
0.1956	12516.33	4.0580	4.0581	0.7666	7.52	1.53	0.750			
0.1979	12663.92	4.0550	4.0552	0.7578	7.52	1.53	0.750			
0.2001	12806.31	4.0520	4.0519	0.7661	7.51	1.52	0.750			
0.2023	12948.54	4.0490	4.0490	0.7741	7.50	1.51	0.750			
0.2047	13098.31	4.0460	4.0461	0.7858	7.49	1.50	0.750			
0.2070	13250.90	4.0430	4.0431	0.8046	7.48	1.49	0.750			
0.2095	13410.95	4.0400	4.0401	0.8143	7.47	1.48	0.750			
0.2120	13569.38	4.0370	4.0371	0.8236	7.46	1.47	0.750			
0.2145	13728.61	4.0340	4.0340	0.8259	7.45	1.46	0.750			
0.2170	13886.66	4.0310	4.0310	0.8193	7.44	1.45	0.750			
0.2194	14043.81	4.0280	4.0280	0.8159	7.43	1.44	0.750			
0.2219	14201.95	4.0250	4.0251	0.8136	7.42	1.43	0.750			
0.2243	14356.72	4.0220	4.0220	0.8170	7.42	1.43	0.750			
0.2268	14513.21	4.0190	4.0190	0.8221	7.41	1.42	0.750			
0.2292	14669.46	4.0160	4.0160	0.8256	7.40	1.41	0.750			
0.2317	14828.05	4.0130	4.0130	0.8362	7.40	1.41	0.750			
0.2343	14992.69	4.0100	4.0100	0.8344	7.39	1.40	0.750			
0.2368	15153.98	4.0070	4.0069	0.8459	7.38	1.39	0.750			
0.2393	15316.81	4.0040	4.0041	0.8465	7.37	1.38	0.750			
0.2419	15478.46	4.0010	4.0010	0.8449	7.36	1.37	0.750			
0.2444	15640.85	3.9980	3.9982	0.8502	7.35	1.36	0.750			
0.2470	15805.29	3.9950	3.9950	0.8505	7.34	1.35	0.750			
0.2495	15967.07	3.9920	3.9920	0.8551	7.33	1.34	0.750			
0.2521	16133.14	3.9890	3.9890	0.8608	7.32	1.33	0.750			
0.2546	16297.47	3.9860	3.9860	0.8595	7.31	1.32	0.750			
0.2572	16463.44	3.9830	3.9830	0.8660	7.31	1.32	0.750			
0.2598	16629.62	3.9800	3.9802	0.8681	7.30	1.31	0.750			
0.2624	16795.85	3.9770	3.9770	0.8761	7.29	1.30	0.750			
0.2651	16966.43	3.9740	3.9740	0.8844	7.28	1.29	0.750			
0.2677	17135.39	3.9710	3.9709	0.8866	7.27	1.28	0.750			
0.2704	17306.94	3.9680	3.9681	0.8938	7.26	1.27	0.750			
0.2731	17478.51	3.9650	3.9650	0.8978	7.26	1.27	0.750			
0.2758	17649.78	3.9620	3.9620	0.9035	7.25	1.26	0.750			
0.2785	17824.28	3.9590	3.9590	0.9069	7.24	1.25	0.750			
0.2812	17998.35	3.9560	3.9559	0.9092	7.23	1.24	0.750			
0.2840	18178.08	3.9530	3.9530	0.9022	7.23	1.24	0.750			
0.2867	18347.56	3.9500	3.9502	0.9196	7.22	1.23	0.750			
0.2895	18525.32	3.9470	3.9470	0.9243	7.22	1.23	0.750			
0.2922	18701.18	3.9440	3.9441	0.9241	7.21	1.22	0.750			
0.2950	18881.27	3.9410	3.9412	0.9303	7.20	1.21	0.750			
0.2978	19059.69	3.9380	3.9383	0.9310	7.19	1.20	0.750			
0.3006	19239.92	3.9350	3.9350	0.9403	7.18	1.19	0.750			
0.3034	19419.92	3.9320	3.9320	0.9499	7.17	1.18	0.750			
0.3062	19598.26	3.9290	3.9288	0.9454	7.16	1.17	0.750			
0.3092	19785.85	3.9260	3.9260	0.9509	7.15	1.16	0.750			
0.3120	19969.44	3.9230	3.9231	0.9670	7.15	1.16	0.750			
0.3149	20156.10	3.9200	3.9200	0.9807	7.14	1.15	0.750			
0.3179	20343.42	3.9170	3.9168	0.9827	7.13	1.14	0.750			
0.3208	20533.04	3.9140	3.9141	0.9877	7.12	1.13	0.750			
0.3238	20724.25	3.9110	3.9111	1.0000	7.11	1.12	0.750			
0.3269	20918.51	3.9080	3.9081	1.0175	7.10	1.11	0.750			
0.3299	21115.14	3.9050	3.9048	1.0218	7.08	1.09	0.750			
0.3330	21313.07	3.9020	3.9021	1.0262	7.07	1.08	0.750			
0.3361	21509.49	3.8990	3.8990	1.0396	7.06	1.07	0.750			
0.3392	21711.78	3.8960	3.8961	1.0553	7.05	1.06	0.750			
0.3425	21916.88	3.8930	3.8929	1.0669	7.03	1.04	0.750			
0.3456	22121.45	3.8900	3.8900	1.0669	7.02	1.03	0.750			
0.3488	22324.78	3.8870	3.8872	1.0791	7.01	1.02	0.750			
0.3521	22533.23	3.8840	3.8840	1.0999	7.00	1.01	0.750			
0.3555	22749.73	3.8810	3.8807	1.1063	6.99	1.00	0.750			
0.3587	22958.21	3.8780	3.8781	1.1148	6.98	0.99	0.750			
0.3621	23175.24	3.8750	3.8751	1.1304	6.97	0.98	0.750			
0.3656	23396.12	3.8720	3.8721	1.1503	6.96	0.97	0.750			
0.3690	23616.79	3.8690	3.8689	1.1547	6.95	0.96	0.750			
0.3725	23838.25	3.8660	3.8661	1.1759	6.94	0.95	0.750			
0.3760	24064.26	3.8630	3.8631	1.1937	6.93	0.94	0.750			
0.3797	24301.18	3.8600	3.8599	1.2086	6.91	0.92	0.750			
0.3833	24533.50	3.8570	3.8569	1.2193	6.90	0.91	0.750			
0.3870	24769.86	3.8540	3.8542	1.2430	6.89	0.90	0.750			
0.3908	25009.13	3.8510	3.8511	1.2557	6.88	0.89	0.750			
0.3946	25251.82	3.8480	3.8478	1.2681	6.87	0.88	0.750			
0.3983	25490.36	3.8450	3.8452	1.3092	6.85	0.86	0.750			
0.4022	25742.29	3.8420	3.8420	1.3499	6.84	0.85	0.750			
0.4063	26005.72	3.8390	3.8387	1.3998	6.82	0.83	0.750			
0.4106	26279.76	3.8360	3.8363	1.4345	6.81	0.82	0.750	0.373	0.889	
0.4152	26573.42	3.8330	3.8330	1.4574	6.79	0.80	0.750			
0.4196	26857.03	3.8300	3.8300	1.4907	6.78	0.79	0.750			
0.4241	27141.29	3.8270	3.8271	1.4677	6.76	0.77	0.750			
0.4284	27420.13	3.8240	3.8241	1.4818	6.74	0.75	0.750			
0.4329	27706.79	3.8210	3.8212	1.5008	6.72	0.73	0.750			
0.4374	27991.04	3.8180	3.8179	1.5417	6.70	0.71	0.750			
0.4421	28293.73	3.8150	3.8151	1.5739	6.69	0.70	0.750			
0.4468	28594.78	3.8120	3.8118	1.6091	6.67	0.68	0.750			
0.4518	28917.46	3.8090	3.8091	1.6521	6.65	0.66	0.750			
0.4567	29229.11	3.8060	3.8059	1.6626	6.63	0.64	0.750			
0.4618	29554.79	3.8030	3.8031	1.6937	6.61	0.62	0.750			
0.4668	29877.11	3.8000	3.8001	1.7624	6.59	0.60	0.750			
0.4721	30216.96	3.7970	3.7974	1.7924	6.57	0.58	0.750			
0.4777	30575.90	3.7940	3.7941	1.8419	6.54	0.55	0.750			
0.4833	30933.59	3.7910	3.7909	1.8720	6.52	0.53	0.750			
0.4888	31282.96	3.7880	3.7881	1.8892	6.50	0.51	0.750			
0.4946	31652.30	3.7850	3.7850	1.8931	6.48	0.49	0.750			
0.5004	32022.64	3.7820	3.7818	1.9077	6.46	0.47	0.750			
0.5061	32387.21	3.7790	3.7788	1.9451	6.43	0.44	0.750			
0.5119	32760.40	3.7760	3.7760	1.9581	6.41	0.42	0.750			
0.5178	33142.29	3.7730	3.7729	1.9863	6.39	0.40	0.750			
0.5240	33533.91	3.7700	3.7703	2.0170	6.36	0.37	0.750			
0.5301	33925.32	3.7670	3.7669	2.0123	6.33	0.34	0.750			
0.5359	34296.83	3.7640	3.7640	1.9971	6.31	0.32	0.750			
0.5420	34688.40	3.7610	3.7610	2.0589	6.29	0.30	0.750			
0.5482	35081.68	3.7580	3.7579	2.0645	6.27	0.28	0.750			
0.5544	35484.70	3.7550	3.7550	2.1176	6.25	0.26	0.750			
0.5609	35900.13	3.7520	3.7519	2.1773	6.23	0.24	0.750			
0.5675	36321.71	3.7490	3.7491	2.1873	6.21	0.22	0.750			
0.5742	36745.92	3.7460	3.7461	2.2452	6.19	0.20	0.750			
0.5809	37179.35	3.7430	3.7429	2.2742	6.17	0.18	0.750			
0.5879	37622.73	3.7400	3.7402	2.3394	6.15	0.16	0.750			
0.5950	38077.12	3.7370	3.7369	2.4186	6.13	0.14	0.750			
0.6022	38543.38	3.7340	3.7339	2.4398	6.10	0.11	0.750			
0.6098	39024.78	3.7310	3.7310	2.5243	6.08	0.09	0.750			
0.6174	39516.45	3.7280	3.7279	2.5414	6.05	0.06	0.750			
0.6251	40005.06	3.7250	3.7252	2.5450	6.04	0.05	0.750			
0.6328	40500.93	3.7220	3.7219	2.4795	6.03	0.04	0.750			
0.6401	40963.54	3.7190	3.7192	2.3628	6.01	0.02	0.750			
0.6472	41422.18	3.7160	3.7157	2.2796	5.99	0.00	0.750			
0.6538	41843.14	3.7130	3.7130	2.0472	5.98	-0.01	0.750			
0.6595	42205.53	3.7100	3.7104	1.8426	5.98	-0.01	0.750			
0.6645	42529.49	3.7070	3.7068	1.6027	5.97	-0.02	0.750			
0.6690	42818.18	3.7040	3.7038	1.4272	5.97	-0.02	0.750			
0.6727	43055.77	3.7010	3.7012	1.2702	5.96	-0.03	0.750			
0.6764	43290.82	3.6980	3.6980	1.1812	5.96	-0.03	0.750			
0.6797	43499.27	3.6950	3.6949	1.0818	5.95	-0.04	0.750			
0.6828	43699.14	3.6920	3.6922	1.0172	5.95	-0.04	0.750			
0.6857	43885.21	3.6890	3.6890	0.9629	5.95	-0.04	0.750			
0.6885	44062.76	3.6860	3.6860	0.9265	5.95	-0.04	0.750			
0.6912	44235.36	3.6830	3.6830	0.8931	5.95	-0.04	0.750			
0.6938	44401.04	3.6800	3.6800	0.8608	5.95	-0.04	0.750			
0.6964	44566.93	3.6770	3.6769	0.8371	5.95	-0.04	0.750			
0.6989	44726.73	3.6740	3.6741	0.8013	5.96	-0.03	0.750			
0.7012	44877.78	3.6710	3.6710	0.7654	5.96	-0.03	0.750			
0.7034	45020.68	3.6680	3.6682	0.7294	5.97	-0.02	0.750			
0.7056	45155.91	3.6650	3.6648	0.6955	5.97	-0.02	0.750			
0.7076	45284.50	3.6620	3.6620	0.6604	5.97	-0.02	0.750			
0.7095	45408.80	3.6590	3.6590	0.6260	5.98	-0.01	0.750			
0.7114	45528.03	3.6560	3.6560	0.5943	5.98	-0.01	0.750			
0.7131	45639.42	3.6530	3.6531	0.5539	5.98	-0.01	0.750			
0.7147	45742.14	3.6500	3.6499	0.5159	5.98	-0.01	0.750			
0.7162	45836.71	3.6470	3.6470	0.4756	5.99	-0.00	0.750			
0.7176	45924.07	3.6440	3.6441	0.4406	5.99	-0.00	0.750			
0.7188	46004.69	3.6410	3.6409	0.4033	5.99	0.00	0.750			
0.7200	46078.75	3.6380	3.6380	0.3684	5.99	0.00	0.750			
0.7210	46145.83	3.6350	3.6351	0.3333	5.99	0.00	0.750			
0.7220	46206.12	3.6320	3.6320	0.2993	6.00	0.01	0.750			
0.7228	46261.88	3.6290	3.6289	0.2646	6.00	0.01	0.750			
0.7236	46308.95	3.6260	3.6259	0.2271	6.00	0.01	0.750			
0.7242	46349.00	3.6230	3.6230	0.1898	6.00	0.01	0.750			
0.7248	46384.16	3.6200	3.6201	0.1556	6.00	0.01	0.750			
0.7252	46410.43	3.6170	3.6173	0.1151	6.00	0.01	0.750			
0.7255	46429.30	3.6140	3.6145	0.0735	6.00	0.01	0.750			
0.7256	46440.88	3.6110	3.6097	0.0270	6.00	0.01	0.750			
0.7257	46441.64	3.6080	3.6087	-0.0192	6.00	0.01	0.750			
