Ah_balance (normalized)	Ah_balance (mAh)	Voltage - fit (V)	Voltage -  interpolate (V)	dQ/dV (1/V)	Temperature (°C)	Temperature - diff (°C)	Current (C)	R_DC 0ms (mOhm)	R_DC 50ms (mOhm)	R_DC 50 ms PEC (mOhm)
0.0944	6044.74	4.0070	4.0068	-0.0771	5.99	0.00	-0.750			
0.0947	6062.40	4.0040	4.0037	-0.1064	5.99	0.00	-0.750			
0.0951	6086.27	4.0010	4.0010	-0.1347	5.99	0.00	-0.750			
0.0955	6115.05	3.9980	3.9980	-0.1612	5.99	0.00	-0.750			
0.0961	6148.98	3.9950	3.9949	-0.1858	5.99	-0.00	-0.750			
0.0967	6188.16	3.9920	3.9921	-0.2118	5.99	-0.00	-0.750			
0.0974	6230.85	3.9890	3.9890	-0.2356	5.99	-0.00	-0.750			
0.0981	6278.55	3.9860	3.9861	-0.2584	5.99	-0.00	-0.750			
0.0989	6330.30	3.9830	3.9829	-0.2806	5.99	-0.00	-0.750			
0.0998	6386.17	3.9800	3.9800	-0.3024	5.98	-0.01	-0.750			
0.1007	6446.35	3.9770	3.9771	-0.3268	5.98	-0.01	-0.750			
0.1017	6511.30	3.9740	3.9739	-0.3495	5.98	-0.01	-0.750			
0.1028	6580.81	3.9710	3.9710	-0.3719	5.98	-0.01	-0.750			
0.1040	6653.90	3.9680	3.9681	-0.3974	5.98	-0.01	-0.750			
0.1052	6732.78	3.9650	3.9650	-0.4223	5.98	-0.01	-0.750			
0.1065	6816.48	3.9620	3.9619	-0.4456	5.97	-0.02	-0.750			
0.1079	6904.23	3.9590	3.9591	-0.4690	5.97	-0.02	-0.750			
0.1093	6996.85	3.9560	3.9560	-0.4891	5.97	-0.02	-0.750			
0.1108	7093.71	3.9530	3.9530	-0.5117	5.97	-0.02	-0.750			
0.1124	7194.39	3.9500	3.9500	-0.5289	5.96	-0.03	-0.750			
0.1140	7295.92	3.9470	3.9470	-0.5479	5.96	-0.03	-0.750			
0.1157	7404.09	3.9440	3.9440	-0.5674	5.96	-0.03	-0.750			
0.1174	7515.42	3.9410	3.9410	-0.5809	5.96	-0.03	-0.750			
0.1192	7628.64	3.9380	3.9379	-0.5957	5.95	-0.04	-0.750			
0.1210	7745.08	3.9350	3.9353	-0.6084	5.95	-0.04	-0.750			
0.1229	7862.59	3.9320	3.9319	-0.6204	5.95	-0.04	-0.750			
0.1247	7982.66	3.9290	3.9290	-0.6341	5.96	-0.03	-0.750			
0.1266	8105.37	3.9260	3.9260	-0.6474	5.96	-0.03	-0.750			
0.1286	8231.85	3.9230	3.9230	-0.6590	5.96	-0.03	-0.750			
0.1306	8360.58	3.9200	3.9199	-0.6674	5.97	-0.02	-0.750			
0.1327	8489.61	3.9170	3.9171	-0.6752	5.97	-0.02	-0.750			
0.1347	8620.00	3.9140	3.9140	-0.6833	5.97	-0.02	-0.750			
0.1367	8751.29	3.9110	3.9109	-0.6895	5.98	-0.01	-0.750			
0.1388	8884.41	3.9080	3.9080	-0.6965	5.98	-0.01	-0.750			
0.1409	9019.93	3.9050	3.9050	-0.6963	5.98	-0.01	-0.750			
0.1431	9155.89	3.9020	3.9020	-0.7045	5.99	-0.00	-0.750			
0.1452	9289.84	3.8990	3.8991	-0.7097	5.99	-0.00	-0.750			
0.1473	9425.89	3.8960	3.8961	-0.7127	5.99	0.00	-0.750			
0.1494	9561.98	3.8930	3.8929	-0.7150	6.00	0.01	-0.750			
0.1516	9699.71	3.8900	3.8900	-0.7271	6.00	0.01	-0.750			
0.1538	9841.75	3.8870	3.8870	-0.7312	6.00	0.01	-0.750			
0.1560	9984.14	3.8840	3.8838	-0.7367	6.01	0.02	-0.750			
0.1582	10126.52	3.8810	3.8813	-0.7334	6.01	0.02	-0.750			
0.1604	10267.59	3.8780	3.8780	-0.7314	6.01	0.02	-0.750			
0.1626	10406.73	3.8750	3.8750	-0.7376	6.02	0.03	-0.750			
0.1648	10547.69	3.8720	3.8719	-0.7403	6.02	0.03	-0.750			
0.1670	10690.07	3.8690	3.8690	-0.7413	6.02	0.03	-0.750			
0.1693	10832.83	3.8660	3.8659	-0.7455	6.03	0.04	-0.750			
0.1715	10977.38	3.8630	3.8632	-0.7489	6.03	0.04	-0.750			
0.1738	11122.19	3.8600	3.8600	-0.7494	6.04	0.05	-0.750			
0.1760	11265.19	3.8570	3.8570	-0.7497	6.05	0.06	-0.750			
0.1782	11407.29	3.8540	3.8540	-0.7425	6.05	0.06	-0.750			
0.1805	11551.16	3.8510	3.8509	-0.7501	6.06	0.07	-0.750			
0.1828	11697.04	3.8480	3.8480	-0.7513	6.07	0.08	-0.750			
0.1850	11839.00	3.8450	3.8449	-0.7491	6.08	0.09	-0.750			
0.1872	11982.62	3.8420	3.8420	-0.7551	6.08	0.09	-0.750			
0.1895	12127.92	3.8390	3.8391	-0.7586	6.09	0.10	-0.750			
0.1918	12272.36	3.8360	3.8358	-0.7592	6.10	0.11	-0.750			
0.1941	12421.65	3.8330	3.8331	-0.7651	6.10	0.11	-0.750			
0.1964	12568.50	3.8300	3.8301	-0.7638	6.11	0.12	-0.750			
0.1987	12717.91	3.8270	3.8270	-0.7656	6.12	0.13	-0.750			
0.2010	12864.09	3.8240	3.8240	-0.7607	6.13	0.14	-0.750			
0.2032	13006.67	3.8210	3.8210	-0.7589	6.13	0.14	-0.750			
0.2055	13152.83	3.8180	3.8180	-0.7608	6.14	0.15	-0.750			
0.2078	13298.39	3.8150	3.8148	-0.7636	6.15	0.16	-0.750			
0.2101	13445.67	3.8120	3.8119	-0.7653	6.15	0.16	-0.750			
0.2124	13592.57	3.8090	3.8089	-0.7679	6.16	0.17	-0.750			
0.2147	13741.76	3.8060	3.8060	-0.7666	6.17	0.18	-0.750			
0.2170	13888.33	3.8030	3.8030	-0.7657	6.17	0.18	-0.750			
0.2193	14034.52	3.8000	3.8000	-0.7651	6.18	0.19	-0.750			
0.2216	14182.36	3.7970	3.7970	-0.7662	6.18	0.19	-0.750			
0.2239	14328.11	3.7940	3.7940	-0.7628	6.19	0.20	-0.750			
0.2262	14475.12	3.7910	3.7911	-0.7653	6.20	0.21	-0.750			
0.2285	14621.89	3.7880	3.7879	-0.7672	6.21	0.22	-0.750			
0.2308	14770.10	3.7850	3.7850	-0.7712	6.22	0.23	-0.750			
0.2331	14917.39	3.7820	3.7820	-0.7727	6.23	0.24	-0.750			
0.2354	15066.18	3.7790	3.7789	-0.7720	6.23	0.24	-0.750			
0.2377	15214.98	3.7760	3.7760	-0.7767	6.24	0.25	-0.750			
0.2401	15364.68	3.7730	3.7730	-0.7729	6.25	0.26	-0.750			
0.2424	15511.95	3.7700	3.7700	-0.7721	6.25	0.26	-0.750			
0.2447	15660.45	3.7670	3.7670	-0.7717	6.26	0.27	-0.750			
0.2470	15808.38	3.7640	3.7639	-0.7721	6.26	0.27	-0.750			
0.2493	15954.49	3.7610	3.7610	-0.7756	6.27	0.28	-0.750			
0.2516	16104.45	3.7580	3.7580	-0.7792	6.27	0.28	-0.750			
0.2540	16254.21	3.7550	3.7550	-0.7786	6.28	0.29	-0.750			
0.2563	16405.13	3.7520	3.7518	-0.7854	6.29	0.30	-0.750			
0.2587	16555.04	3.7490	3.7494	-0.7871	6.29	0.30	-0.750			
0.2611	16707.37	3.7460	3.7459	-0.7901	6.30	0.31	-0.750			
0.2634	16858.89	3.7430	3.7430	-0.8020	6.31	0.32	-0.750			
0.2659	17014.81	3.7400	3.7400	-0.8050	6.31	0.32	-0.750			
0.2683	17170.73	3.7370	3.7369	-0.8114	6.32	0.33	-0.750			
0.2707	17327.08	3.7340	3.7343	-0.8133	6.33	0.34	-0.750			
0.2732	17482.89	3.7310	3.7310	-0.8142	6.34	0.35	-0.750			
0.2756	17639.25	3.7280	3.7279	-0.8185	6.34	0.35	-0.750			
0.2781	17795.74	3.7250	3.7250	-0.8187	6.35	0.36	-0.750			
0.2805	17952.58	3.7220	3.7220	-0.8266	6.35	0.36	-0.750			
0.2830	18111.60	3.7190	3.7191	-0.8329	6.36	0.37	-0.750			
0.2855	18272.87	3.7160	3.7160	-0.8379	6.37	0.38	-0.750			
0.2881	18435.26	3.7130	3.7130	-0.8420	6.37	0.38	-0.750			
0.2906	18596.40	3.7100	3.7100	-0.8479	6.38	0.39	-0.750			
0.2931	18759.39	3.7070	3.7071	-0.8557	6.38	0.39	-0.750			
0.2957	18924.46	3.7040	3.7040	-0.8654	6.39	0.40	-0.750			
0.2983	19090.34	3.7010	3.7009	-0.8752	6.40	0.41	-0.750			
0.3009	19260.04	3.6980	3.6980	-0.8820	6.40	0.41	-0.750			
0.3036	19430.38	3.6950	3.6950	-0.8925	6.41	0.42	-0.750			
0.3063	19603.24	3.6920	3.6920	-0.8978	6.42	0.43	-0.750			
0.3090	19775.92	3.6890	3.6892	-0.9037	6.42	0.43	-0.750			
0.3117	19950.18	3.6860	3.6859	-0.9191	6.43	0.44	-0.750			
0.3145	20127.83	3.6830	3.6829	-0.9245	6.43	0.44	-0.750			
0.3173	20306.60	3.6800	3.6800	-0.9308	6.44	0.45	-0.750			
0.3201	20486.63	3.6770	3.6772	-0.9438	6.45	0.46	-0.750			
0.3229	20667.01	3.6740	3.6739	-0.9570	6.45	0.46	-0.750			
0.3258	20854.01	3.6710	3.6708	-0.9648	6.46	0.47	-0.750			
0.3287	21037.77	3.6680	3.6680	-0.9697	6.46	0.47	-0.750			
0.3316	21223.93	3.6650	3.6650	-0.9752	6.47	0.48	-0.750			
0.3346	21416.30	3.6620	3.6619	-0.9928	6.47	0.48	-0.750			
0.3376	21607.50	3.6590	3.6590	-1.0030	6.47	0.48	-0.750			
0.3406	21798.82	3.6560	3.6560	-1.0084	6.48	0.49	-0.750			
0.3437	21993.66	3.6530	3.6530	-1.0129	6.48	0.49	-0.750			
0.3467	22190.78	3.6500	3.6500	-1.0347	6.48	0.49	-0.750			
0.3498	22389.14	3.6470	3.6471	-1.0439	6.49	0.50	-0.750			
0.3530	22590.81	3.6440	3.6439	-1.0549	6.50	0.51	-0.750			
0.3561	22791.98	3.6410	3.6409	-1.0642	6.50	0.51	-0.750			
0.3594	23000.79	3.6380	3.6382	-1.0913	6.51	0.52	-0.750			
0.3627	23212.07	3.6350	3.6350	-1.0988	6.51	0.52	-0.750			
0.3660	23425.65	3.6320	3.6319	-1.1057	6.51	0.52	-0.750			
0.3693	23636.31	3.6290	3.6291	-1.1107	6.51	0.52	-0.750			
0.3727	23852.11	3.6260	3.6259	-1.1268	6.51	0.52	-0.750			
0.3761	24069.29	3.6230	3.6229	-1.1372	6.52	0.53	-0.750			
0.3795	24288.30	3.6200	3.6200	-1.1445	6.52	0.53	-0.750			
0.3829	24507.75	3.6170	3.6171	-1.1573	6.53	0.54	-0.750			
0.3865	24734.18	3.6140	3.6139	-1.1751	6.54	0.55	-0.750			
0.3900	24961.18	3.6110	3.6110	-1.1854	6.54	0.55	-0.750			
0.3935	25182.17	3.6080	3.6080	-1.2266	6.55	0.56	-0.750			
0.3971	25414.65	3.6050	3.6050	-1.2797	6.55	0.56	-0.750			
0.4011	25670.73	3.6020	3.6018	-1.3091	6.55	0.56	-0.750			
0.4052	25931.44	3.5990	3.5985	-1.3311	6.55	0.56	-0.750			
0.4093	26197.48	3.5960	3.5963	-1.3485	6.55	0.56	-0.750			
0.4135	26463.32	3.5930	3.5934	-1.3453	6.56	0.57	-0.750	0.454	1.049	
0.4175	26723.03	3.5900	3.5897	-1.3188	6.56	0.57	-0.750			
0.4212	26957.42	3.5870	3.5872	-1.2816	6.57	0.58	-0.750			
0.4250	27202.26	3.5840	3.5840	-1.2911	6.58	0.59	-0.750			
0.4290	27455.93	3.5810	3.5809	-1.3137	6.58	0.59	-0.750			
0.4329	27707.53	3.5780	3.5782	-1.3327	6.59	0.60	-0.750			
0.4370	27965.54	3.5750	3.5750	-1.3520	6.60	0.61	-0.750			
0.4411	28228.54	3.5720	3.5720	-1.3668	6.60	0.61	-0.750			
0.4452	28493.36	3.5690	3.5691	-1.3886	6.61	0.62	-0.750			
0.4494	28759.06	3.5660	3.5660	-1.3983	6.61	0.62	-0.750			
0.4536	29031.73	3.5630	3.5629	-1.4156	6.61	0.62	-0.750			
0.4579	29304.64	3.5600	3.5601	-1.4372	6.61	0.62	-0.750			
0.4622	29582.38	3.5570	3.5569	-1.4467	6.62	0.63	-0.750			
0.4666	29863.61	3.5540	3.5539	-1.4688	6.63	0.64	-0.750			
0.4711	30149.09	3.5510	3.5512	-1.4830	6.64	0.65	-0.750			
0.4755	30434.10	3.5480	3.5480	-1.4891	6.64	0.65	-0.750			
0.4800	30722.78	3.5450	3.5449	-1.5125	6.65	0.66	-0.750			
0.4846	31012.51	3.5420	3.5421	-1.5267	6.65	0.66	-0.750			
0.4892	31305.84	3.5390	3.5389	-1.5410	6.66	0.67	-0.750			
0.4938	31604.41	3.5360	3.5360	-1.5524	6.67	0.68	-0.750			
0.4985	31904.41	3.5330	3.5329	-1.5592	6.67	0.68	-0.750			
0.5032	32206.90	3.5300	3.5299	-1.5827	6.67	0.68	-0.750			
0.5080	32514.17	3.5270	3.5271	-1.5829	6.67	0.68	-0.750			
0.5128	32818.26	3.5240	3.5240	-1.5797	6.68	0.69	-0.750			
0.5175	33120.88	3.5210	3.5209	-1.5779	6.68	0.69	-0.750			
0.5222	33423.65	3.5180	3.5180	-1.5712	6.69	0.70	-0.750			
0.5270	33725.02	3.5150	3.5150	-1.5893	6.70	0.71	-0.750			
0.5317	34029.96	3.5120	3.5119	-1.5944	6.71	0.72	-0.750			
0.5365	34338.37	3.5090	3.5089	-1.6046	6.71	0.72	-0.750			
0.5414	34650.08	3.5060	3.5061	-1.6250	6.72	0.73	-0.750			
0.5463	34964.40	3.5030	3.5032	-1.6174	6.72	0.73	-0.750			
0.5512	35274.93	3.5000	3.5001	-1.5982	6.73	0.74	-0.750			
0.5560	35582.77	3.4970	3.4970	-1.5927	6.74	0.75	-0.750			
0.5607	35884.54	3.4940	3.4938	-1.5722	6.75	0.76	-0.750			
0.5654	36188.08	3.4910	3.4910	-1.5751	6.76	0.77	-0.750			
0.5701	36488.45	3.4880	3.4880	-1.5672	6.76	0.77	-0.750			
0.5748	36787.02	3.4850	3.4849	-1.5598	6.76	0.77	-0.750			
0.5795	37085.92	3.4820	3.4822	-1.5640	6.77	0.78	-0.750			
0.5842	37391.98	3.4790	3.4790	-1.5546	6.77	0.78	-0.750			
0.5889	37689.15	3.4760	3.4760	-1.5337	6.79	0.80	-0.750			
0.5935	37985.05	3.4730	3.4731	-1.5234	6.80	0.81	-0.750			
0.5980	38275.05	3.4700	3.4700	-1.5052	6.82	0.83	-0.750			
0.6025	38561.10	3.4670	3.4669	-1.4949	6.83	0.84	-0.750			
0.6069	38843.00	3.4640	3.4639	-1.4842	6.84	0.85	-0.750			
0.6114	39126.94	3.4610	3.4609	-1.4775	6.85	0.86	-0.750			
0.6158	39413.84	3.4580	3.4580	-1.4638	6.86	0.87	-0.750			
0.6202	39695.58	3.4550	3.4550	-1.4490	6.87	0.88	-0.750			
0.6245	39969.58	3.4520	3.4520	-1.4264	6.88	0.89	-0.750			
0.6288	40244.05	3.4490	3.4490	-1.4108	6.90	0.91	-0.750			
0.6330	40511.87	3.4460	3.4461	-1.3910	6.91	0.92	-0.750			
0.6371	40776.55	3.4430	3.4430	-1.3661	6.92	0.93	-0.750			
0.6413	41040.19	3.4400	3.4400	-1.3505	6.92	0.93	-0.750			
0.6453	41296.67	3.4370	3.4371	-1.3329	6.93	0.94	-0.750			
0.6492	41550.07	3.4340	3.4339	-1.3078	6.94	0.95	-0.750			
0.6531	41800.67	3.4310	3.4309	-1.2825	6.96	0.97	-0.750			
0.6570	42045.21	3.4280	3.4281	-1.2585	6.97	0.98	-0.750			
0.6607	42283.90	3.4250	3.4250	-1.2347	6.99	1.00	-0.750			
0.6644	42521.82	3.4220	3.4219	-1.2088	7.00	1.01	-0.750			
0.6679	42748.62	3.4190	3.4190	-1.1810	7.02	1.03	-0.750			
0.6714	42969.79	3.4160	3.4161	-1.1569	7.03	1.04	-0.750			
0.6749	43194.52	3.4130	3.4129	-1.1327	7.04	1.05	-0.750			
0.6783	43409.49	3.4100	3.4100	-1.1044	7.05	1.06	-0.750			
0.6815	43619.13	3.4070	3.4070	-1.0713	7.06	1.07	-0.750			
0.6847	43823.10	3.4040	3.4040	-1.0418	7.07	1.08	-0.750			
0.6878	44019.88	3.4010	3.4009	-1.0206	7.08	1.09	-0.750			
0.6908	44210.07	3.3980	3.3980	-0.9875	7.09	1.10	-0.750			
0.6937	44397.41	3.3950	3.3949	-0.9630	7.10	1.11	-0.750			
0.6966	44582.00	3.3920	3.3921	-0.9439	7.11	1.12	-0.750			
0.6994	44760.93	3.3890	3.3890	-0.9160	7.13	1.14	-0.750			
0.7021	44934.85	3.3860	3.3860	-0.8910	7.15	1.16	-0.750			
0.7047	45100.35	3.3830	3.3830	-0.8580	7.16	1.17	-0.750			
0.7073	45265.90	3.3800	3.3799	-0.8416	7.17	1.18	-0.750			
0.7098	45425.25	3.3770	3.3769	-0.8145	7.19	1.20	-0.750			
0.7121	45577.37	3.3740	3.3740	-0.7945	7.20	1.21	-0.750			
0.7145	45727.59	3.3710	3.3710	-0.7727	7.21	1.22	-0.750			
0.7168	45874.73	3.3680	3.3679	-0.7497	7.23	1.24	-0.750			
0.7190	46016.82	3.3650	3.3650	-0.7297	7.24	1.25	-0.750			
0.7212	46154.18	3.3620	3.3623	-0.7083	7.25	1.26	-0.750			
0.7232	46287.96	3.3590	3.3589	-0.6897	7.26	1.27	-0.750			
0.7253	46418.61	3.3560	3.3560	-0.6723	7.28	1.29	-0.750			
0.7273	46544.29	3.3530	3.3530	-0.6561	7.29	1.30	-0.750			
0.7292	46669.31	3.3500	3.3500	-0.6432	7.30	1.31	-0.750			
0.7311	46790.80	3.3470	3.3470	-0.6180	7.31	1.32	-0.750			
