Ah_balance (normalized)	Ah_balance (mAh)	Voltage - fit (V)	Voltage -  interpolate (V)	dQ/dV (1/V)	Temperature (°C)	Temperature - diff (°C)	Current (C)	R_DC 0ms (mOhm)	R_DC 50ms (mOhm)	R_DC 50 ms PEC (mOhm)
0.0941	6024.60	4.0080	4.0076	-0.0843	6.00	0.01	-0.750			
0.0944	6043.78	4.0050	4.0049	-0.1128	6.00	0.01	-0.750			
0.0948	6067.96	4.0020	4.0019	-0.1398	5.99	0.00	-0.750			
0.0953	6097.33	3.9990	3.9991	-0.1673	5.99	0.00	-0.750			
0.0958	6132.87	3.9960	3.9960	-0.1911	5.99	0.00	-0.750			
0.0964	6172.55	3.9930	3.9929	-0.2176	5.99	0.00	-0.750			
0.0971	6216.48	3.9900	3.9901	-0.2417	5.99	0.00	-0.750			
0.0979	6265.04	3.9870	3.9871	-0.2663	5.99	-0.00	-0.750			
0.0987	6318.95	3.9840	3.9839	-0.2893	5.99	-0.00	-0.750			
0.0996	6376.50	3.9810	3.9810	-0.3134	5.99	-0.00	-0.750			
0.1006	6438.93	3.9780	3.9781	-0.3371	5.99	-0.00	-0.750			
0.1017	6506.05	3.9750	3.9750	-0.3612	5.98	-0.01	-0.750			
0.1028	6577.86	3.9720	3.9719	-0.3858	5.98	-0.01	-0.750			
0.1040	6654.01	3.9690	3.9691	-0.4122	5.98	-0.01	-0.750			
0.1052	6735.43	3.9660	3.9659	-0.4375	5.98	-0.01	-0.750			
0.1066	6822.60	3.9630	3.9630	-0.4630	5.98	-0.01	-0.750			
0.1080	6914.18	3.9600	3.9599	-0.4856	5.97	-0.02	-0.750			
0.1095	7009.96	3.9570	3.9570	-0.5089	5.97	-0.02	-0.750			
0.1111	7111.11	3.9540	3.9540	-0.5283	5.97	-0.02	-0.750			
0.1127	7213.83	3.9510	3.9510	-0.5473	5.97	-0.02	-0.750			
0.1144	7320.18	3.9480	3.9480	-0.5652	5.97	-0.02	-0.750			
0.1161	7430.48	3.9450	3.9450	-0.5849	5.97	-0.02	-0.750			
0.1179	7545.82	3.9420	3.9420	-0.5992	5.97	-0.02	-0.750			
0.1197	7662.45	3.9390	3.9390	-0.6131	5.97	-0.02	-0.750			
0.1216	7782.37	3.9360	3.9359	-0.6221	5.97	-0.02	-0.750			
0.1235	7903.86	3.9330	3.9328	-0.6342	5.97	-0.02	-0.750			
0.1254	8024.58	3.9300	3.9301	-0.6471	5.97	-0.02	-0.750			
0.1273	8147.70	3.9270	3.9271	-0.6648	5.97	-0.02	-0.750			
0.1293	8278.00	3.9240	3.9239	-0.6736	5.97	-0.02	-0.750			
0.1314	8410.95	3.9210	3.9209	-0.6883	5.97	-0.02	-0.750			
0.1335	8544.86	3.9180	3.9181	-0.6947	5.97	-0.02	-0.750			
0.1356	8679.33	3.9150	3.9152	-0.7035	5.97	-0.02	-0.750			
0.1377	8814.17	3.9120	3.9120	-0.7114	5.97	-0.02	-0.750			
0.1398	8949.70	3.9090	3.9089	-0.7224	5.98	-0.01	-0.750			
0.1420	9088.46	3.9060	3.9060	-0.7247	5.98	-0.01	-0.750			
0.1443	9232.03	3.9030	3.9030	-0.7346	5.98	-0.01	-0.750			
0.1465	9374.88	3.9000	3.9000	-0.7383	5.99	-0.00	-0.750			
0.1487	9517.21	3.8970	3.8970	-0.7384	5.99	0.00	-0.750			
0.1509	9656.57	3.8940	3.8940	-0.7364	6.00	0.01	-0.750			
0.1531	9797.44	3.8910	3.8909	-0.7409	6.00	0.01	-0.750			
0.1553	9938.57	3.8880	3.8880	-0.7444	6.01	0.02	-0.750			
0.1576	10084.47	3.8850	3.8850	-0.7517	6.01	0.02	-0.750			
0.1598	10230.18	3.8820	3.8821	-0.7562	6.02	0.03	-0.750			
0.1621	10375.45	3.8790	3.8790	-0.7586	6.02	0.03	-0.750			
0.1644	10520.66	3.8760	3.8760	-0.7618	6.02	0.03	-0.750			
0.1667	10667.00	3.8730	3.8730	-0.7623	6.03	0.04	-0.750			
0.1689	10812.53	3.8700	3.8701	-0.7652	6.03	0.04	-0.750			
0.1713	10960.79	3.8670	3.8669	-0.7688	6.03	0.04	-0.750			
0.1736	11109.33	3.8640	3.8640	-0.7692	6.03	0.04	-0.750			
0.1759	11256.37	3.8610	3.8610	-0.7724	6.04	0.05	-0.750			
0.1782	11404.79	3.8580	3.8580	-0.7739	6.05	0.06	-0.750			
0.1805	11553.96	3.8550	3.8551	-0.7752	6.06	0.07	-0.750			
0.1829	11703.80	3.8520	3.8519	-0.7782	6.06	0.07	-0.750			
0.1852	11852.94	3.8490	3.8493	-0.7780	6.07	0.08	-0.750			
0.1875	12003.11	3.8460	3.8460	-0.7798	6.08	0.09	-0.750			
0.1899	12152.73	3.8430	3.8429	-0.7819	6.09	0.10	-0.750			
0.1922	12301.95	3.8400	3.8400	-0.7811	6.09	0.10	-0.750			
0.1946	12451.93	3.8370	3.8370	-0.7815	6.10	0.11	-0.750			
0.1969	12601.70	3.8340	3.8340	-0.7807	6.11	0.12	-0.750			
0.1993	12752.82	3.8310	3.8310	-0.7768	6.12	0.13	-0.750			
0.2015	12899.20	3.8280	3.8281	-0.7877	6.12	0.13	-0.750			
0.2039	13051.76	3.8250	3.8249	-0.7877	6.13	0.14	-0.750			
0.2063	13203.16	3.8220	3.8219	-0.7922	6.14	0.15	-0.750			
0.2087	13356.45	3.8190	3.8189	-0.7909	6.15	0.16	-0.750			
0.2111	13510.37	3.8160	3.8161	-0.7931	6.15	0.16	-0.750			
0.2135	13662.19	3.8130	3.8130	-0.7958	6.16	0.17	-0.750			
0.2159	13815.59	3.8100	3.8099	-0.7921	6.16	0.17	-0.750			
0.2182	13963.53	3.8070	3.8070	-0.7827	6.17	0.18	-0.750			
0.2206	14116.47	3.8040	3.8041	-0.7895	6.18	0.19	-0.750			
0.2229	14267.59	3.8010	3.8011	-0.7882	6.18	0.19	-0.750			
0.2253	14419.59	3.7980	3.7979	-0.7900	6.19	0.20	-0.750			
0.2277	14570.72	3.7950	3.7950	-0.7908	6.19	0.20	-0.750			
0.2300	14723.08	3.7920	3.7920	-0.7866	6.20	0.21	-0.750			
0.2324	14875.20	3.7890	3.7890	-0.7942	6.20	0.21	-0.750			
0.2348	15027.31	3.7860	3.7862	-0.7930	6.21	0.22	-0.750			
0.2372	15179.35	3.7830	3.7829	-0.7886	6.22	0.23	-0.750			
0.2395	15329.84	3.7800	3.7801	-0.7915	6.23	0.24	-0.750			
0.2419	15481.70	3.7770	3.7771	-0.7914	6.24	0.25	-0.750			
0.2443	15633.72	3.7740	3.7739	-0.7921	6.25	0.26	-0.750			
0.2467	15787.51	3.7710	3.7710	-0.7993	6.27	0.28	-0.750			
0.2491	15939.30	3.7680	3.7681	-0.7993	6.27	0.28	-0.750			
0.2515	16093.12	3.7650	3.7649	-0.8093	6.28	0.29	-0.750			
0.2539	16252.00	3.7620	3.7620	-0.8053	6.29	0.30	-0.750			
0.2563	16405.78	3.7590	3.7590	-0.8017	6.30	0.31	-0.750			
0.2588	16560.29	3.7560	3.7560	-0.8021	6.31	0.32	-0.750			
0.2612	16714.17	3.7530	3.7530	-0.8015	6.31	0.32	-0.750			
0.2635	16865.79	3.7500	3.7499	-0.8042	6.32	0.33	-0.750			
0.2659	17020.00	3.7470	3.7469	-0.8024	6.32	0.33	-0.750			
0.2683	17172.90	3.7440	3.7440	-0.8068	6.32	0.33	-0.750			
0.2708	17330.80	3.7410	3.7410	-0.8181	6.33	0.34	-0.750			
0.2733	17488.02	3.7380	3.7380	-0.8178	6.33	0.34	-0.750			
0.2757	17646.11	3.7350	3.7349	-0.8179	6.34	0.35	-0.750			
0.2782	17802.31	3.7320	3.7321	-0.8240	6.34	0.35	-0.750			
0.2807	17962.19	3.7290	3.7289	-0.8244	6.35	0.36	-0.750			
0.2832	18122.60	3.7260	3.7259	-0.8279	6.36	0.37	-0.750			
0.2856	18279.53	3.7230	3.7231	-0.8305	6.36	0.37	-0.750			
0.2881	18438.09	3.7200	3.7201	-0.8363	6.37	0.38	-0.750			
0.2906	18601.48	3.7170	3.7168	-0.8448	6.37	0.38	-0.750			
0.2932	18763.41	3.7140	3.7140	-0.8495	6.38	0.39	-0.750			
0.2957	18927.12	3.7110	3.7110	-0.8577	6.39	0.40	-0.750			
0.2983	19093.48	3.7080	3.7081	-0.8615	6.39	0.40	-0.750			
0.3009	19259.52	3.7050	3.7049	-0.8685	6.40	0.41	-0.750			
0.3035	19424.89	3.7020	3.7020	-0.8724	6.40	0.41	-0.750			
0.3061	19590.01	3.6990	3.6991	-0.8790	6.40	0.41	-0.750			
0.3088	19763.75	3.6960	3.6959	-0.8952	6.41	0.42	-0.750			
0.3115	19936.33	3.6930	3.6928	-0.8965	6.41	0.42	-0.750			
0.3142	20110.43	3.6900	3.6901	-0.9093	6.42	0.43	-0.750			
0.3170	20287.19	3.6870	3.6870	-0.9184	6.42	0.43	-0.750			
0.3197	20462.59	3.6840	3.6839	-0.9217	6.43	0.44	-0.750			
0.3225	20639.60	3.6810	3.6815	-0.9378	6.43	0.44	-0.750			
0.3253	20818.72	3.6780	3.6778	-0.9505	6.44	0.45	-0.750			
0.3282	21004.06	3.6750	3.6750	-0.9639	6.44	0.45	-0.750			
0.3311	21192.51	3.6720	3.6720	-0.9701	6.45	0.46	-0.750			
0.3341	21383.80	3.6690	3.6691	-0.9854	6.46	0.47	-0.750			
0.3370	21569.73	3.6660	3.6659	-0.9941	6.46	0.47	-0.750			
0.3400	21759.44	3.6630	3.6629	-0.9981	6.46	0.47	-0.750			
0.3430	21950.10	3.6600	3.6599	-1.0071	6.47	0.48	-0.750			
0.3460	22144.11	3.6570	3.6569	-1.0110	6.47	0.48	-0.750			
0.3491	22342.95	3.6540	3.6541	-1.0314	6.47	0.48	-0.750			
0.3522	22541.74	3.6510	3.6510	-1.0384	6.48	0.49	-0.750			
0.3553	22738.80	3.6480	3.6479	-1.0498	6.48	0.49	-0.750			
0.3584	22936.95	3.6450	3.6451	-1.0608	6.49	0.50	-0.750			
0.3617	23147.06	3.6420	3.6419	-1.0906	6.49	0.50	-0.750			
0.3650	23360.88	3.6390	3.6390	-1.1089	6.49	0.50	-0.750			
0.3684	23578.16	3.6360	3.6360	-1.1209	6.49	0.50	-0.750			
0.3718	23794.54	3.6330	3.6331	-1.1311	6.49	0.50	-0.750			
0.3752	24015.13	3.6300	3.6299	-1.1448	6.49	0.50	-0.750			
0.3786	24232.14	3.6270	3.6269	-1.1460	6.49	0.50	-0.750			
0.3821	24453.24	3.6240	3.6239	-1.1538	6.49	0.50	-0.750			
0.3855	24674.19	3.6210	3.6212	-1.1695	6.49	0.50	-0.750			
0.3891	24902.93	3.6180	3.6178	-1.1844	6.49	0.50	-0.750			
0.3927	25131.28	3.6150	3.6150	-1.1932	6.49	0.50	-0.750			
0.3962	25359.04	3.6120	3.6119	-1.2056	6.49	0.50	-0.750			
0.3999	25594.66	3.6090	3.6089	-1.2249	6.49	0.50	-0.750			
0.4036	25829.61	3.6060	3.6059	-1.2414	6.49	0.50	-0.750			
0.4073	26069.40	3.6030	3.6029	-1.2487	6.49	0.50	-0.750			
0.4110	26307.16	3.6000	3.6001	-1.2697	6.49	0.50	-0.750			
0.4150	26559.83	3.5970	3.5970	-1.2850	6.49	0.50	-0.750	0.470	1.090	
0.4189	26807.21	3.5940	3.5939	-1.2936	6.49	0.50	-0.750			
0.4227	27054.93	3.5910	3.5913	-1.3141	6.49	0.50	-0.750			
0.4267	27311.10	3.5880	3.5879	-1.3245	6.49	0.50	-0.750			
0.4307	27562.95	3.5850	3.5849	-1.3323	6.49	0.50	-0.750			
0.4347	27822.11	3.5820	3.5824	-1.3600	6.49	0.50	-0.750			
0.4388	28086.13	3.5790	3.5789	-1.3753	6.49	0.50	-0.750			
0.4430	28352.93	3.5760	3.5759	-1.3927	6.49	0.50	-0.750			
0.4472	28617.84	3.5730	3.5732	-1.4020	6.49	0.50	-0.750			
0.4515	28893.04	3.5700	3.5699	-1.4222	6.49	0.50	-0.750			
0.4557	29165.73	3.5670	3.5670	-1.4540	6.48	0.49	-0.750			
0.4601	29443.91	3.5640	3.5640	-1.4719	6.48	0.49	-0.750			
0.4645	29727.12	3.5610	3.5609	-1.4989	6.48	0.49	-0.750			
0.4691	30022.66	3.5580	3.5582	-1.5207	6.49	0.50	-0.750			
0.4737	30316.69	3.5550	3.5551	-1.5272	6.49	0.50	-0.750			
0.4783	30612.31	3.5520	3.5518	-1.5388	6.49	0.50	-0.750			
0.4830	30909.00	3.5490	3.5489	-1.5432	6.49	0.50	-0.750			
0.4876	31204.37	3.5460	3.5458	-1.5498	6.49	0.50	-0.750			
0.4922	31502.56	3.5430	3.5429	-1.5628	6.49	0.50	-0.750			
0.4968	31797.16	3.5400	3.5402	-1.5694	6.49	0.50	-0.750			
0.5016	32104.18	3.5370	3.5370	-1.5902	6.49	0.50	-0.750			
0.5065	32414.04	3.5340	3.5338	-1.5974	6.49	0.50	-0.750			
0.5113	32721.68	3.5310	3.5310	-1.6179	6.49	0.50	-0.750			
0.5162	33034.34	3.5280	3.5279	-1.6068	6.49	0.50	-0.750			
0.5210	33342.76	3.5250	3.5250	-1.6124	6.49	0.50	-0.750			
0.5258	33650.72	3.5220	3.5220	-1.6183	6.49	0.50	-0.750			
0.5306	33960.84	3.5190	3.5186	-1.6202	6.49	0.50	-0.750			
0.5355	34269.94	3.5160	3.5159	-1.6368	6.49	0.50	-0.750			
0.5405	34591.05	3.5130	3.5129	-1.6369	6.49	0.50	-0.750			
0.5455	34910.53	3.5100	3.5100	-1.6433	6.49	0.50	-0.750			
0.5505	35230.09	3.5070	3.5068	-1.6486	6.49	0.50	-0.750			
0.5554	35542.67	3.5040	3.5040	-1.6467	6.49	0.50	-0.750			
0.5603	35858.90	3.5010	3.5011	-1.6583	6.49	0.50	-0.750			
0.5652	36175.83	3.4980	3.4982	-1.6484	6.50	0.51	-0.750			
0.5702	36495.77	3.4950	3.4949	-1.6429	6.51	0.52	-0.750			
0.5753	36816.32	3.4920	3.4919	-1.6472	6.51	0.52	-0.750			
0.5802	37134.59	3.4890	3.4889	-1.6277	6.51	0.52	-0.750			
0.5851	37443.82	3.4860	3.4860	-1.6242	6.51	0.52	-0.750			
0.5899	37753.80	3.4830	3.4831	-1.5939	6.51	0.52	-0.750			
0.5946	38056.91	3.4800	3.4799	-1.5767	6.52	0.53	-0.750			
0.5994	38363.43	3.4770	3.4769	-1.5628	6.52	0.53	-0.750			
0.6040	38656.98	3.4740	3.4741	-1.5499	6.53	0.54	-0.750			
0.6086	38951.02	3.4710	3.4711	-1.5325	6.54	0.55	-0.750			
0.6132	39247.41	3.4680	3.4678	-1.5084	6.55	0.56	-0.750			
0.6178	39538.24	3.4650	3.4648	-1.5056	6.56	0.57	-0.750			
0.6223	39827.19	3.4620	3.4623	-1.4949	6.57	0.58	-0.750			
0.6267	40111.08	3.4590	3.4588	-1.4701	6.58	0.59	-0.750			
0.6312	40395.68	3.4560	3.4562	-1.4583	6.58	0.59	-0.750			
0.6355	40670.21	3.4530	3.4531	-1.4427	6.59	0.60	-0.750			
0.6398	40945.83	3.4500	3.4499	-1.4157	6.60	0.61	-0.750			
0.6441	41219.67	3.4470	3.4469	-1.3980	6.60	0.61	-0.750			
0.6482	41485.65	3.4440	3.4442	-1.3855	6.61	0.62	-0.750			
0.6524	41752.26	3.4410	3.4408	-1.3628	6.62	0.63	-0.750			
0.6564	42011.30	3.4380	3.4379	-1.3319	6.63	0.64	-0.750			
0.6604	42263.03	3.4350	3.4354	-1.3021	6.64	0.65	-0.750			
0.6642	42511.57	3.4320	3.4319	-1.2800	6.65	0.66	-0.750			
0.6681	42755.39	3.4290	3.4289	-1.2580	6.66	0.67	-0.750			
0.6717	42989.11	3.4260	3.4260	-1.2247	6.67	0.68	-0.750			
0.6754	43227.16	3.4230	3.4229	-1.2110	6.68	0.69	-0.750			
0.6790	43456.39	3.4200	3.4200	-1.1818	6.69	0.70	-0.750			
0.6825	43681.37	3.4170	3.4170	-1.1516	6.70	0.71	-0.750			
0.6859	43897.91	3.4140	3.4141	-1.1279	6.71	0.72	-0.750			
0.6893	44113.59	3.4110	3.4110	-1.0952	6.72	0.73	-0.750			
0.6925	44321.45	3.4080	3.4079	-1.0617	6.73	0.74	-0.750			
0.6956	44521.18	3.4050	3.4050	-1.0317	6.74	0.75	-0.750			
0.6986	44711.72	3.4020	3.4021	-1.0314	6.75	0.76	-0.750			
0.7017	44907.05	3.3990	3.3990	-1.0234	6.76	0.77	-0.750			
0.7047	45103.36	3.3960	3.3958	-1.0128	6.77	0.78	-0.750			
0.7078	45301.87	3.3930	3.3928	-0.9857	6.78	0.79	-0.750			
0.7109	45495.44	3.3900	3.3905	-0.9631	6.79	0.80	-0.750			
0.7138	45681.89	3.3870	3.3869	-0.9315	6.81	0.82	-0.750			
0.7165	45853.99	3.3840	3.3839	-0.8812	6.82	0.83	-0.750			
0.7189	46008.03	3.3810	3.3810	-0.8213	6.83	0.84	-0.750			
0.7213	46165.08	3.3780	3.3779	-0.7990	6.84	0.85	-0.750			
0.7237	46316.45	3.3750	3.3750	-0.7743	6.86	0.87	-0.750			
0.7260	46462.60	3.3720	3.3720	-0.7496	6.87	0.88	-0.750			
0.7281	46601.56	3.3690	3.3690	-0.7295	6.89	0.90	-0.750			
0.7303	46737.62	3.3660	3.3661	-0.7147	6.90	0.91	-0.750			
0.7324	46875.29	3.3630	3.3628	-0.7029	6.91	0.92	-0.750			
0.7345	47010.25	3.3600	3.3600	-0.7197	6.93	0.94	-0.750			
