Ah_balance (normalized)	Ah_balance (mAh)	Voltage - fit (V)	Voltage -  interpolate (V)	dQ/dV (1/V)	Temperature (°C)	Temperature - diff (°C)	Current (C)	R_DC 0ms (mOhm)	R_DC 50ms (mOhm)	R_DC 50 ms PEC (mOhm)
0.0936	5992.31	4.0020	4.0017	-0.0695	6.00	0.01	-0.750			
0.0939	6008.33	3.9990	3.9987	-0.0974	6.00	0.01	-0.750			
0.0942	6029.88	3.9960	3.9959	-0.1251	6.00	0.01	-0.750			
0.0946	6057.18	3.9930	3.9930	-0.1510	6.00	0.01	-0.750			
0.0951	6088.87	3.9900	3.9900	-0.1756	6.00	0.01	-0.750			
0.0957	6124.91	3.9870	3.9870	-0.2011	6.00	0.01	-0.750			
0.0964	6167.05	3.9840	3.9840	-0.2247	6.00	0.01	-0.750			
0.0971	6212.22	3.9810	3.9810	-0.2484	6.00	0.01	-0.750			
0.0978	6261.80	3.9780	3.9780	-0.2727	5.99	0.00	-0.750			
0.0987	6316.77	3.9750	3.9751	-0.2955	5.99	0.00	-0.750			
0.0996	6376.08	3.9720	3.9719	-0.3166	5.99	0.00	-0.750			
0.1006	6438.92	3.9690	3.9691	-0.3412	5.99	0.00	-0.750			
0.1017	6506.49	3.9660	3.9661	-0.3646	5.99	-0.00	-0.750			
0.1028	6578.32	3.9630	3.9630	-0.3887	5.99	-0.00	-0.750			
0.1040	6655.61	3.9600	3.9599	-0.4100	5.99	-0.00	-0.750			
0.1052	6735.87	3.9570	3.9571	-0.4361	5.98	-0.01	-0.750			
0.1066	6823.10	3.9540	3.9540	-0.4607	5.98	-0.01	-0.750			
0.1080	6913.71	3.9510	3.9510	-0.4862	5.98	-0.01	-0.750			
0.1095	7009.67	3.9480	3.9479	-0.5058	5.98	-0.01	-0.750			
0.1111	7110.29	3.9450	3.9450	-0.5240	5.97	-0.02	-0.750			
0.1127	7213.49	3.9420	3.9419	-0.5425	5.97	-0.02	-0.750			
0.1144	7319.68	3.9390	3.9390	-0.5582	5.97	-0.02	-0.750			
0.1160	7427.13	3.9360	3.9359	-0.5676	5.97	-0.02	-0.750			
0.1178	7537.94	3.9330	3.9330	-0.5815	5.98	-0.01	-0.750			
0.1195	7649.87	3.9300	3.9301	-0.5951	5.98	-0.01	-0.750			
0.1214	7767.96	3.9270	3.9269	-0.6133	5.98	-0.01	-0.750			
0.1232	7887.10	3.9240	3.9239	-0.6247	5.99	-0.00	-0.750			
0.1251	8007.75	3.9210	3.9210	-0.6343	5.99	-0.00	-0.750			
0.1270	8130.90	3.9180	3.9179	-0.6448	5.99	0.00	-0.750			
0.1290	8256.42	3.9150	3.9149	-0.6530	5.99	0.00	-0.750			
0.1310	8381.88	3.9120	3.9120	-0.6603	6.00	0.01	-0.750			
0.1329	8508.51	3.9090	3.9090	-0.6638	6.00	0.01	-0.750			
0.1350	8638.94	3.9060	3.9061	-0.6734	6.00	0.01	-0.750			
0.1370	8768.60	3.9030	3.9030	-0.6791	6.01	0.02	-0.750			
0.1391	8899.54	3.9000	3.9000	-0.6847	6.01	0.02	-0.750			
0.1411	9031.81	3.8970	3.8970	-0.6893	6.02	0.03	-0.750			
0.1432	9162.94	3.8940	3.8940	-0.6992	6.03	0.04	-0.750			
0.1453	9298.78	3.8910	3.8910	-0.7031	6.03	0.04	-0.750			
0.1474	9435.37	3.8880	3.8879	-0.7101	6.04	0.05	-0.750			
0.1496	9571.74	3.8850	3.8849	-0.7091	6.05	0.06	-0.750			
0.1517	9708.92	3.8820	3.8821	-0.7109	6.05	0.06	-0.750			
0.1538	9845.87	3.8790	3.8790	-0.7111	6.06	0.07	-0.750			
0.1560	9982.96	3.8760	3.8758	-0.7085	6.07	0.08	-0.750			
0.1580	10115.03	3.8730	3.8732	-0.7110	6.07	0.08	-0.750			
0.1602	10253.32	3.8700	3.8701	-0.7234	6.08	0.09	-0.750			
0.1624	10393.03	3.8670	3.8669	-0.7277	6.09	0.10	-0.750			
0.1646	10535.21	3.8640	3.8640	-0.7318	6.09	0.10	-0.750			
0.1668	10676.52	3.8610	3.8611	-0.7333	6.10	0.11	-0.750			
0.1690	10817.69	3.8580	3.8580	-0.7346	6.11	0.12	-0.750			
0.1712	10959.55	3.8550	3.8550	-0.7337	6.12	0.13	-0.750			
0.1734	11098.32	3.8520	3.8520	-0.7288	6.12	0.13	-0.750			
0.1756	11238.16	3.8490	3.8490	-0.7283	6.13	0.14	-0.750			
0.1778	11377.92	3.8460	3.8460	-0.7297	6.14	0.15	-0.750			
0.1800	11518.52	3.8430	3.8430	-0.7304	6.14	0.15	-0.750			
0.1822	11657.81	3.8400	3.8400	-0.7350	6.15	0.16	-0.750			
0.1844	11799.13	3.8370	3.8368	-0.7373	6.16	0.17	-0.750			
0.1866	11941.93	3.8340	3.8340	-0.7414	6.16	0.17	-0.750			
0.1888	12084.93	3.8310	3.8311	-0.7429	6.17	0.18	-0.750			
0.1911	12229.39	3.8280	3.8280	-0.7419	6.18	0.19	-0.750			
0.1933	12371.49	3.8250	3.8250	-0.7396	6.19	0.20	-0.750			
0.1955	12512.54	3.8220	3.8219	-0.7333	6.20	0.21	-0.750			
0.1977	12652.80	3.8190	3.8190	-0.7324	6.21	0.22	-0.750			
0.1999	12792.19	3.8160	3.8160	-0.7323	6.22	0.23	-0.750			
0.2021	12932.44	3.8130	3.8130	-0.7335	6.22	0.23	-0.750			
0.2043	13073.02	3.8100	3.8099	-0.7383	6.23	0.24	-0.750			
0.2065	13215.00	3.8070	3.8071	-0.7459	6.24	0.25	-0.750			
0.2087	13358.76	3.8040	3.8040	-0.7480	6.25	0.26	-0.750			
0.2110	13504.08	3.8010	3.8010	-0.7521	6.26	0.27	-0.750			
0.2133	13649.43	3.7980	3.7981	-0.7502	6.27	0.28	-0.750			
0.2155	13793.81	3.7950	3.7950	-0.7469	6.28	0.29	-0.750			
0.2178	13937.28	3.7920	3.7920	-0.7440	6.29	0.30	-0.750			
0.2200	14079.46	3.7890	3.7890	-0.7504	6.30	0.31	-0.750			
0.2222	14222.65	3.7860	3.7859	-0.7536	6.31	0.32	-0.750			
0.2245	14369.01	3.7830	3.7829	-0.7572	6.32	0.33	-0.750			
0.2268	14515.08	3.7800	3.7801	-0.7554	6.33	0.34	-0.750			
0.2291	14660.51	3.7770	3.7770	-0.7615	6.34	0.35	-0.750			
0.2314	14806.57	3.7740	3.7740	-0.7621	6.35	0.36	-0.750			
0.2336	14950.40	3.7710	3.7710	-0.7580	6.35	0.36	-0.750			
0.2359	15098.33	3.7680	3.7679	-0.7683	6.36	0.37	-0.750			
0.2382	15246.74	3.7650	3.7652	-0.7698	6.37	0.38	-0.750			
0.2406	15395.31	3.7620	3.7621	-0.7756	6.38	0.39	-0.750			
0.2429	15545.53	3.7590	3.7589	-0.7814	6.39	0.40	-0.750			
0.2452	15694.57	3.7560	3.7560	-0.7810	6.40	0.41	-0.750			
0.2476	15844.76	3.7530	3.7529	-0.7829	6.41	0.42	-0.750			
0.2499	15994.59	3.7500	3.7500	-0.7870	6.43	0.44	-0.750			
0.2523	16147.07	3.7470	3.7470	-0.7892	6.43	0.44	-0.750			
0.2546	16297.32	3.7440	3.7440	-0.8005	6.44	0.45	-0.750			
0.2571	16451.83	3.7410	3.7410	-0.7998	6.45	0.46	-0.750			
0.2595	16606.47	3.7380	3.7380	-0.8051	6.46	0.47	-0.750			
0.2619	16762.13	3.7350	3.7349	-0.8118	6.47	0.48	-0.750			
0.2644	16919.46	3.7320	3.7320	-0.8136	6.47	0.48	-0.750			
0.2668	17074.72	3.7290	3.7289	-0.8193	6.48	0.49	-0.750			
0.2693	17232.98	3.7260	3.7260	-0.8186	6.49	0.50	-0.750			
0.2717	17387.52	3.7230	3.7231	-0.8169	6.50	0.51	-0.750			
0.2742	17546.90	3.7200	3.7200	-0.8297	6.50	0.51	-0.750			
0.2766	17705.56	3.7170	3.7169	-0.8338	6.51	0.52	-0.750			
0.2791	17865.43	3.7140	3.7140	-0.8430	6.52	0.53	-0.750			
0.2817	18029.88	3.7110	3.7110	-0.8573	6.53	0.54	-0.750			
0.2843	18196.07	3.7080	3.7079	-0.8662	6.54	0.55	-0.750			
0.2870	18365.07	3.7050	3.7049	-0.8783	6.55	0.56	-0.750			
0.2896	18533.09	3.7020	3.7020	-0.8812	6.55	0.56	-0.750			
0.2922	18702.40	3.6990	3.6989	-0.8887	6.56	0.57	-0.750			
0.2949	18874.32	3.6960	3.6960	-0.8933	6.57	0.58	-0.750			
0.2976	19043.75	3.6930	3.6930	-0.8969	6.58	0.59	-0.750			
0.3003	19219.55	3.6900	3.6900	-0.9100	6.59	0.60	-0.750			
0.3030	19393.04	3.6870	3.6870	-0.9209	6.60	0.61	-0.750			
0.3058	19571.97	3.6840	3.6840	-0.9228	6.61	0.62	-0.750			
0.3086	19750.20	3.6810	3.6810	-0.9290	6.61	0.62	-0.750			
0.3114	19928.44	3.6780	3.6779	-0.9364	6.62	0.63	-0.750			
0.3142	20109.94	3.6750	3.6751	-0.9448	6.63	0.64	-0.750			
0.3171	20291.54	3.6720	3.6719	-0.9541	6.64	0.65	-0.750			
0.3200	20476.84	3.6690	3.6689	-0.9578	6.65	0.66	-0.750			
0.3228	20659.80	3.6660	3.6660	-0.9572	6.66	0.67	-0.750			
0.3257	20846.64	3.6630	3.6633	-0.9761	6.67	0.68	-0.750			
0.3286	21032.90	3.6600	3.6599	-0.9866	6.67	0.68	-0.750			
0.3316	21223.36	3.6570	3.6569	-0.9951	6.68	0.69	-0.750			
0.3346	21415.19	3.6540	3.6540	-1.0021	6.68	0.69	-0.750			
0.3377	21612.18	3.6510	3.6510	-1.0171	6.69	0.70	-0.750			
0.3407	21807.28	3.6480	3.6479	-1.0248	6.70	0.71	-0.750			
0.3438	22003.56	3.6450	3.6449	-1.0283	6.71	0.72	-0.750			
0.3469	22199.88	3.6420	3.6420	-1.0332	6.72	0.73	-0.750			
0.3500	22397.21	3.6390	3.6389	-1.0406	6.73	0.74	-0.750			
0.3531	22601.43	3.6360	3.6360	-1.0602	6.73	0.74	-0.750			
0.3564	22806.84	3.6330	3.6330	-1.0655	6.74	0.75	-0.750			
0.3596	23013.11	3.6300	3.6299	-1.0761	6.74	0.75	-0.750			
0.3628	23219.55	3.6270	3.6271	-1.0805	6.75	0.76	-0.750			
0.3661	23427.86	3.6240	3.6240	-1.1012	6.75	0.76	-0.750			
0.3694	23641.40	3.6210	3.6211	-1.1041	6.76	0.77	-0.750			
0.3727	23854.77	3.6180	3.6178	-1.1086	6.76	0.77	-0.750			
0.3760	24066.62	3.6150	3.6154	-1.1160	6.77	0.78	-0.750			
0.3794	24282.76	3.6120	3.6118	-1.1299	6.78	0.79	-0.750			
0.3828	24498.11	3.6090	3.6091	-1.1388	6.79	0.80	-0.750			
0.3862	24716.92	3.6060	3.6058	-1.1496	6.80	0.81	-0.750			
0.3897	24941.46	3.6030	3.6031	-1.1752	6.81	0.82	-0.750			
0.3933	25172.19	3.6000	3.5999	-1.1862	6.82	0.83	-0.750			
0.3969	25401.10	3.5970	3.5969	-1.1943	6.82	0.83	-0.750			
0.4004	25627.33	3.5940	3.5942	-1.2017	6.83	0.84	-0.750			
0.4041	25861.62	3.5910	3.5907	-1.2090	6.84	0.85	-0.750	0.474	1.058	
0.4077	26094.62	3.5880	3.5880	-1.2100	6.85	0.86	-0.750			
0.4113	26325.33	3.5850	3.5850	-1.2204	6.86	0.87	-0.750			
0.4150	26562.01	3.5820	3.5820	-1.2371	6.86	0.87	-0.750			
0.4188	26800.88	3.5790	3.5789	-1.2468	6.86	0.87	-0.750			
0.4224	27035.18	3.5760	3.5759	-1.2529	6.87	0.88	-0.750			
0.4262	27275.49	3.5730	3.5733	-1.2760	6.87	0.88	-0.750			
0.4301	27529.00	3.5700	3.5699	-1.2971	6.88	0.89	-0.750			
0.4341	27781.40	3.5670	3.5669	-1.3102	6.88	0.89	-0.750			
0.4380	28032.99	3.5640	3.5643	-1.3221	6.89	0.90	-0.750			
0.4420	28289.27	3.5610	3.5609	-1.3343	6.90	0.91	-0.750			
0.4460	28546.08	3.5580	3.5579	-1.3457	6.91	0.92	-0.750			
0.4500	28801.83	3.5550	3.5551	-1.3513	6.93	0.94	-0.750			
0.4541	29064.23	3.5520	3.5519	-1.3742	6.94	0.95	-0.750			
0.4583	29329.38	3.5490	3.5489	-1.3851	6.94	0.95	-0.750			
0.4624	29596.61	3.5460	3.5461	-1.3991	6.95	0.96	-0.750			
0.4666	29865.09	3.5430	3.5429	-1.4177	6.96	0.97	-0.750			
0.4710	30143.17	3.5400	3.5398	-1.4324	6.96	0.97	-0.750			
0.4753	30419.71	3.5370	3.5371	-1.4492	6.97	0.98	-0.750			
0.4797	30703.05	3.5340	3.5340	-1.4366	6.98	0.99	-0.750			
0.4841	30982.65	3.5310	3.5309	-1.4361	7.00	1.01	-0.750			
0.4884	31257.00	3.5280	3.5284	-1.4380	7.01	1.02	-0.750			
0.4926	31527.84	3.5250	3.5249	-1.4333	7.02	1.03	-0.750			
0.4968	31797.02	3.5220	3.5219	-1.4504	7.02	1.03	-0.750			
0.5013	32082.08	3.5190	3.5192	-1.4692	7.03	1.04	-0.750			
0.5057	32365.91	3.5160	3.5159	-1.5120	7.04	1.05	-0.750			
0.5103	32661.95	3.5130	3.5129	-1.5368	7.05	1.06	-0.750			
0.5151	32963.76	3.5100	3.5099	-1.5195	7.05	1.06	-0.750			
0.5197	33257.65	3.5070	3.5069	-1.5299	7.07	1.08	-0.750			
0.5242	33549.68	3.5040	3.5039	-1.5300	7.08	1.09	-0.750			
0.5287	33838.07	3.5010	3.5009	-1.5290	7.09	1.10	-0.750			
0.5334	34135.34	3.4980	3.4980	-1.5513	7.10	1.11	-0.750			
0.5379	34427.52	3.4950	3.4952	-1.5491	7.11	1.12	-0.750			
0.5428	34736.16	3.4920	3.4921	-1.5720	7.12	1.13	-0.750			
0.5475	35040.35	3.4890	3.4888	-1.5612	7.12	1.13	-0.750			
0.5521	35333.94	3.4860	3.4861	-1.5443	7.13	1.14	-0.750			
0.5568	35632.24	3.4830	3.4827	-1.5337	7.14	1.15	-0.750			
0.5613	35922.34	3.4800	3.4800	-1.5251	7.15	1.16	-0.750			
0.5659	36217.23	3.4770	3.4767	-1.5106	7.16	1.17	-0.750			
0.5705	36509.26	3.4740	3.4740	-1.5204	7.17	1.18	-0.750			
0.5750	36798.65	3.4710	3.4711	-1.5050	7.19	1.20	-0.750			
0.5795	37090.75	3.4680	3.4677	-1.4930	7.20	1.21	-0.750			
0.5840	37374.52	3.4650	3.4653	-1.4879	7.21	1.22	-0.750			
0.5885	37662.22	3.4620	3.4621	-1.4913	7.22	1.23	-0.750			
0.5929	37945.90	3.4590	3.4589	-1.4703	7.23	1.24	-0.750			
0.5974	38233.75	3.4560	3.4558	-1.4676	7.24	1.25	-0.750			
0.6018	38516.73	3.4530	3.4531	-1.4627	7.25	1.26	-0.750			
0.6062	38799.74	3.4500	3.4500	-1.4489	7.26	1.27	-0.750			
0.6105	39073.12	3.4470	3.4469	-1.4301	7.27	1.28	-0.750			
0.6147	39342.18	3.4440	3.4441	-1.3988	7.29	1.30	-0.750			
0.6190	39612.94	3.4410	3.4409	-1.3903	7.30	1.31	-0.750			
0.6231	39875.43	3.4380	3.4378	-1.3761	7.32	1.33	-0.750			
0.6271	40135.74	3.4350	3.4351	-1.3452	7.33	1.34	-0.750			
0.6312	40399.09	3.4320	3.4319	-1.3297	7.35	1.36	-0.750			
0.6352	40653.56	3.4290	3.4289	-1.3010	7.36	1.37	-0.750			
0.6390	40896.60	3.4260	3.4262	-1.2660	7.37	1.38	-0.750			
0.6428	41141.87	3.4230	3.4229	-1.2447	7.38	1.39	-0.750			
0.6465	41375.18	3.4200	3.4200	-1.2166	7.40	1.41	-0.750			
0.6501	41604.88	3.4170	3.4169	-1.1939	7.41	1.42	-0.750			
0.6537	41834.92	3.4140	3.4139	-1.1814	7.42	1.43	-0.750			
0.6572	42060.92	3.4110	3.4109	-1.1436	7.43	1.44	-0.750			
0.6606	42279.05	3.4080	3.4080	-1.1111	7.44	1.45	-0.750			
0.6638	42485.50	3.4050	3.4053	-1.0855	7.45	1.46	-0.750			
0.6671	42693.49	3.4020	3.4019	-1.0640	7.47	1.48	-0.750			
0.6702	42891.84	3.3990	3.3988	-1.0391	7.48	1.49	-0.750			
0.6732	43085.96	3.3960	3.3958	-1.0136	7.50	1.51	-0.750			
0.6763	43283.76	3.3930	3.3934	-1.0009	7.51	1.52	-0.750			
0.6793	43475.54	3.3900	3.3899	-0.9795	7.53	1.54	-0.750			
0.6822	43662.49	3.3870	3.3870	-0.9524	7.54	1.55	-0.750			
0.6850	43841.68	3.3840	3.3840	-0.9208	7.55	1.56	-0.750			
0.6877	44015.09	3.3810	3.3811	-0.8937	7.57	1.58	-0.750			
0.6904	44183.26	3.3780	3.3779	-0.8707	7.58	1.59	-0.750			
0.6929	44348.65	3.3750	3.3749	-0.8455	7.59	1.60	-0.750			
0.6954	44507.56	3.3720	3.3720	-0.8171	7.60	1.61	-0.750			
0.6978	44661.14	3.3690	3.3691	-0.7936	7.62	1.63	-0.750			
0.7002	44812.74	3.3660	3.3661	-0.7760	7.63	1.64	-0.750			
0.7025	44959.90	3.3630	3.3628	-0.7532	7.64	1.65	-0.750			
0.7047	45099.90	3.3600	3.3600	-0.7324	7.65	1.66	-0.750			
0.7068	45237.11	3.3570	3.3571	-0.7246	7.66	1.67	-0.750			
0.7090	45376.89	3.3540	3.3539	-0.7087	7.67	1.68	-0.750			
0.7112	45514.23	3.3510	3.3508	-0.6969	7.68	1.69	-0.750			
0.7132	45646.46	3.3480	3.3484	-0.6784	7.69	1.70	-0.750			
0.7153	45776.31	3.3450	3.3449	-0.6591	7.70	1.71	-0.750			
0.7172	45902.15	3.3420	3.3419	-0.6265	7.71	1.72	-0.750			
0.7191	46020.09	3.3390	3.3390	-0.6269	7.72	1.73	-0.750			
