Ah_balance (normalized)	Ah_balance (mAh)	Voltage - fit (V)	Voltage -  interpolate (V)	dQ/dV (1/V)	Temperature (°C)	Temperature - diff (°C)	Current (C)	R_DC 0ms (mOhm)	R_DC 50ms (mOhm)	R_DC 50 ms PEC (mOhm)
0.0963	6165.71	4.0080	4.0076	-0.0719	6.00	0.01	-0.750			
0.0966	6183.53	4.0050	4.0047	-0.1060	6.00	0.01	-0.750			
0.0970	6207.77	4.0020	4.0018	-0.1346	6.00	0.01	-0.750			
0.0974	6236.55	3.9990	3.9989	-0.1599	6.00	0.01	-0.750			
0.0980	6269.67	3.9960	3.9961	-0.1851	6.00	0.01	-0.750			
0.0986	6307.79	3.9930	3.9931	-0.1961	6.00	0.01	-0.750			
0.0992	6349.31	3.9900	3.9901	-0.2166	6.00	0.01	-0.750			
0.0999	6391.46	3.9870	3.9874	-0.2344	5.99	0.00	-0.750			
0.1006	6437.50	3.9840	3.9841	-0.2558	5.99	0.00	-0.750			
0.1014	6486.81	3.9810	3.9808	-0.2800	5.99	0.00	-0.750			
0.1022	6542.04	3.9780	3.9780	-0.3025	5.99	-0.00	-0.750			
0.1031	6601.46	3.9750	3.9751	-0.3321	5.99	-0.00	-0.750			
0.1042	6670.12	3.9720	3.9721	-0.3649	5.98	-0.01	-0.750			
0.1053	6742.21	3.9690	3.9689	-0.3909	5.98	-0.01	-0.750			
0.1066	6820.24	3.9660	3.9659	-0.4154	5.98	-0.01	-0.750			
0.1079	6903.18	3.9630	3.9631	-0.4393	5.98	-0.01	-0.750			
0.1092	6990.61	3.9600	3.9600	-0.4631	5.97	-0.02	-0.750			
0.1107	7082.65	3.9570	3.9570	-0.4866	5.97	-0.02	-0.750			
0.1121	7176.89	3.9540	3.9540	-0.5054	5.96	-0.03	-0.750			
0.1137	7275.87	3.9510	3.9510	-0.5273	5.96	-0.03	-0.750			
0.1153	7379.67	3.9480	3.9479	-0.5449	5.96	-0.03	-0.750			
0.1170	7487.40	3.9450	3.9449	-0.5637	5.96	-0.03	-0.750			
0.1187	7596.54	3.9420	3.9421	-0.5798	5.96	-0.03	-0.750			
0.1205	7710.04	3.9390	3.9390	-0.5940	5.95	-0.04	-0.750			
0.1223	7825.99	3.9360	3.9360	-0.6099	5.95	-0.04	-0.750			
0.1241	7944.65	3.9330	3.9330	-0.6233	5.95	-0.04	-0.750			
0.1260	8064.97	3.9300	3.9301	-0.6379	5.95	-0.04	-0.750			
0.1280	8189.70	3.9270	3.9268	-0.6511	5.95	-0.04	-0.750			
0.1299	8316.33	3.9240	3.9240	-0.6621	5.95	-0.04	-0.750			
0.1319	8443.68	3.9210	3.9210	-0.6736	5.95	-0.04	-0.750			
0.1340	8574.92	3.9180	3.9180	-0.6816	5.95	-0.04	-0.750			
0.1361	8708.38	3.9150	3.9150	-0.6875	5.95	-0.04	-0.750			
0.1381	8841.38	3.9120	3.9120	-0.6936	5.95	-0.04	-0.750			
0.1402	8973.88	3.9090	3.9091	-0.6973	5.95	-0.04	-0.750			
0.1423	9109.14	3.9060	3.9059	-0.6994	5.96	-0.03	-0.750			
0.1444	9243.61	3.9030	3.9030	-0.7066	5.96	-0.03	-0.750			
0.1465	9377.99	3.9000	3.9000	-0.7126	5.96	-0.03	-0.750			
0.1487	9516.01	3.8970	3.8968	-0.7221	5.97	-0.02	-0.750			
0.1509	9655.74	3.8940	3.8941	-0.7315	5.97	-0.02	-0.750			
0.1531	9797.48	3.8910	3.8908	-0.7341	5.97	-0.02	-0.750			
0.1553	9940.13	3.8880	3.8880	-0.7396	5.98	-0.01	-0.750			
0.1576	10083.99	3.8850	3.8850	-0.7490	5.98	-0.01	-0.750			
0.1598	10227.24	3.8820	3.8820	-0.7433	5.98	-0.01	-0.750			
0.1621	10372.18	3.8790	3.8789	-0.7449	5.99	-0.00	-0.750			
0.1643	10514.84	3.8760	3.8764	-0.7457	5.99	0.00	-0.750			
0.1665	10656.62	3.8730	3.8729	-0.7475	6.00	0.01	-0.750			
0.1687	10799.85	3.8700	3.8700	-0.7542	6.00	0.01	-0.750			
0.1710	10943.19	3.8670	3.8669	-0.7523	6.01	0.02	-0.750			
0.1733	11090.56	3.8640	3.8640	-0.7641	6.01	0.02	-0.750			
0.1756	11238.59	3.8610	3.8610	-0.7614	6.02	0.03	-0.750			
0.1779	11385.11	3.8580	3.8579	-0.7625	6.02	0.03	-0.750			
0.1802	11530.33	3.8550	3.8551	-0.7657	6.03	0.04	-0.750			
0.1824	11676.07	3.8520	3.8519	-0.7620	6.03	0.04	-0.750			
0.1847	11822.82	3.8490	3.8489	-0.7620	6.04	0.05	-0.750			
0.1870	11970.49	3.8460	3.8460	-0.7652	6.04	0.05	-0.750			
0.1893	12115.75	3.8430	3.8433	-0.7690	6.05	0.06	-0.750			
0.1916	12265.05	3.8400	3.8399	-0.7715	6.06	0.07	-0.750			
0.1939	12411.95	3.8370	3.8370	-0.7732	6.07	0.08	-0.750			
0.1963	12561.95	3.8340	3.8340	-0.7722	6.07	0.08	-0.750			
0.1986	12710.91	3.8310	3.8311	-0.7813	6.08	0.09	-0.750			
0.2010	12861.56	3.8280	3.8278	-0.7778	6.09	0.10	-0.750			
0.2033	13009.73	3.8250	3.8249	-0.7781	6.09	0.10	-0.750			
0.2056	13157.33	3.8220	3.8220	-0.7842	6.10	0.11	-0.750			
0.2080	13309.83	3.8190	3.8191	-0.7847	6.11	0.12	-0.750			
0.2103	13460.82	3.8160	3.8159	-0.7810	6.11	0.12	-0.750			
0.2127	13614.26	3.8130	3.8130	-0.7815	6.12	0.13	-0.750			
0.2150	13761.65	3.8100	3.8102	-0.7755	6.12	0.13	-0.750			
0.2173	13909.83	3.8070	3.8069	-0.7805	6.13	0.14	-0.750			
0.2197	14057.94	3.8040	3.8040	-0.7777	6.13	0.14	-0.750			
0.2220	14205.68	3.8010	3.8009	-0.7741	6.14	0.15	-0.750			
0.2243	14357.01	3.7980	3.7980	-0.7806	6.14	0.15	-0.750			
0.2267	14507.89	3.7950	3.7952	-0.7852	6.15	0.16	-0.750			
0.2290	14658.36	3.7920	3.7920	-0.7848	6.16	0.17	-0.750			
0.2314	14808.48	3.7890	3.7889	-0.7845	6.16	0.17	-0.750			
0.2337	14959.93	3.7860	3.7859	-0.7843	6.17	0.18	-0.750			
0.2361	15111.45	3.7830	3.7831	-0.7869	6.17	0.18	-0.750			
0.2385	15262.94	3.7800	3.7799	-0.7857	6.18	0.19	-0.750			
0.2409	15414.41	3.7770	3.7769	-0.7850	6.19	0.20	-0.750			
0.2432	15562.70	3.7740	3.7741	-0.7884	6.20	0.21	-0.750			
0.2455	15714.47	3.7710	3.7709	-0.7828	6.21	0.22	-0.750			
0.2479	15864.26	3.7680	3.7680	-0.7829	6.21	0.22	-0.750			
0.2502	16015.50	3.7650	3.7650	-0.7871	6.22	0.23	-0.750			
0.2526	16165.81	3.7620	3.7620	-0.7869	6.23	0.24	-0.750			
0.2549	16316.28	3.7590	3.7590	-0.7960	6.24	0.25	-0.750			
0.2573	16470.00	3.7560	3.7560	-0.7989	6.25	0.26	-0.750			
0.2597	16623.15	3.7530	3.7529	-0.7998	6.26	0.27	-0.750			
0.2622	16780.80	3.7500	3.7499	-0.8080	6.26	0.27	-0.750			
0.2646	16935.18	3.7470	3.7471	-0.8084	6.27	0.28	-0.750			
0.2670	17090.72	3.7440	3.7440	-0.8075	6.28	0.29	-0.750			
0.2695	17245.80	3.7410	3.7410	-0.8075	6.29	0.30	-0.750			
0.2719	17400.45	3.7380	3.7380	-0.8024	6.29	0.30	-0.750			
0.2743	17554.05	3.7350	3.7351	-0.8098	6.30	0.31	-0.750			
0.2767	17708.80	3.7320	3.7320	-0.8105	6.31	0.32	-0.750			
0.2791	17863.62	3.7290	3.7290	-0.8191	6.32	0.33	-0.750			
0.2816	18021.54	3.7260	3.7259	-0.8310	6.33	0.34	-0.750			
0.2841	18184.24	3.7230	3.7230	-0.8363	6.33	0.34	-0.750			
0.2867	18346.98	3.7200	3.7199	-0.8415	6.34	0.35	-0.750			
0.2892	18508.84	3.7170	3.7174	-0.8464	6.35	0.36	-0.750			
0.2917	18670.01	3.7140	3.7139	-0.8478	6.35	0.36	-0.750			
0.2943	18832.05	3.7110	3.7110	-0.8531	6.35	0.36	-0.750			
0.2968	18995.59	3.7080	3.7079	-0.8534	6.35	0.36	-0.750			
0.2994	19160.34	3.7050	3.7051	-0.8671	6.35	0.36	-0.750			
0.3020	19328.06	3.7020	3.7021	-0.8738	6.35	0.36	-0.750			
0.3046	19495.96	3.6990	3.6989	-0.8829	6.36	0.37	-0.750			
0.3073	19666.30	3.6960	3.6959	-0.8860	6.37	0.38	-0.750			
0.3099	19835.72	3.6930	3.6931	-0.8909	6.38	0.39	-0.750			
0.3126	20007.25	3.6900	3.6899	-0.9063	6.39	0.40	-0.750			
0.3154	20182.43	3.6870	3.6870	-0.9184	6.39	0.40	-0.750			
0.3181	20357.14	3.6840	3.6839	-0.9318	6.39	0.40	-0.750			
0.3210	20540.85	3.6810	3.6810	-0.9404	6.39	0.40	-0.750			
0.3238	20724.25	3.6780	3.6780	-0.9510	6.39	0.40	-0.750			
0.3267	20909.41	3.6750	3.6753	-0.9598	6.39	0.40	-0.750			
0.3296	21093.73	3.6720	3.6719	-0.9683	6.40	0.41	-0.750			
0.3325	21279.50	3.6690	3.6689	-0.9692	6.41	0.42	-0.750			
0.3354	21464.85	3.6660	3.6660	-0.9750	6.42	0.43	-0.750			
0.3383	21653.63	3.6630	3.6630	-0.9895	6.43	0.44	-0.750			
0.3413	21844.62	3.6600	3.6599	-1.0064	6.43	0.44	-0.750			
0.3443	22038.20	3.6570	3.6570	-1.0151	6.43	0.44	-0.750			
0.3474	22235.44	3.6540	3.6539	-1.0242	6.43	0.44	-0.750			
0.3505	22432.29	3.6510	3.6509	-1.0310	6.43	0.44	-0.750			
0.3537	22633.99	3.6480	3.6479	-1.0523	6.43	0.44	-0.750			
0.3568	22835.79	3.6450	3.6450	-1.0604	6.43	0.44	-0.750			
0.3600	23040.21	3.6420	3.6419	-1.0649	6.43	0.44	-0.750			
0.3632	23242.54	3.6390	3.6389	-1.0768	6.43	0.44	-0.750			
0.3665	23454.65	3.6360	3.6361	-1.1014	6.43	0.44	-0.750			
0.3698	23669.43	3.6330	3.6329	-1.1118	6.43	0.44	-0.750			
0.3732	23885.19	3.6300	3.6298	-1.1216	6.44	0.45	-0.750			
0.3765	24098.72	3.6270	3.6274	-1.1371	6.44	0.45	-0.750			
0.3800	24321.11	3.6240	3.6239	-1.1495	6.44	0.45	-0.750			
0.3835	24543.41	3.6210	3.6208	-1.1581	6.45	0.46	-0.750			
0.3869	24762.85	3.6180	3.6179	-1.1645	6.45	0.46	-0.750			
0.3905	24990.58	3.6150	3.6152	-1.1916	6.45	0.46	-0.750			
0.3941	25220.55	3.6120	3.6119	-1.1992	6.44	0.45	-0.750			
0.3977	25452.97	3.6090	3.6089	-1.2041	6.44	0.45	-0.750			
0.4012	25678.43	3.6060	3.6061	-1.2290	6.43	0.44	-0.750			
0.4050	25922.40	3.6030	3.6030	-1.2468	6.43	0.44	-0.750			
0.4088	26165.81	3.6000	3.5998	-1.2547	6.43	0.44	-0.750			
0.4126	26406.99	3.5970	3.5970	-1.2597	6.43	0.44	-0.750			
0.4164	26652.55	3.5940	3.5939	-1.2674	6.43	0.44	-0.750	0.493	1.100	
0.4203	26900.06	3.5910	3.5909	-1.2757	6.44	0.45	-0.750			
0.4241	27139.90	3.5880	3.5879	-1.2952	6.45	0.46	-0.750			
0.4279	27384.82	3.5850	3.5851	-1.3018	6.45	0.46	-0.750			
0.4319	27640.18	3.5820	3.5818	-1.3236	6.45	0.46	-0.750			
0.4359	27894.41	3.5790	3.5790	-1.3357	6.45	0.46	-0.750			
0.4398	28149.53	3.5760	3.5762	-1.3567	6.45	0.46	-0.750			
0.4440	28416.92	3.5730	3.5730	-1.3908	6.45	0.46	-0.750			
0.4482	28684.50	3.5700	3.5699	-1.4000	6.45	0.46	-0.750			
0.4524	28956.77	3.5670	3.5671	-1.4154	6.45	0.46	-0.750			
0.4568	29235.64	3.5640	3.5638	-1.4363	6.45	0.46	-0.750			
0.4611	29509.65	3.5610	3.5611	-1.4533	6.45	0.46	-0.750			
0.4655	29792.45	3.5580	3.5581	-1.4571	6.45	0.46	-0.750			
0.4699	30072.70	3.5550	3.5548	-1.4784	6.45	0.46	-0.750			
0.4744	30358.94	3.5520	3.5518	-1.4897	6.45	0.46	-0.750			
0.4789	30646.56	3.5490	3.5490	-1.4859	6.45	0.46	-0.750			
0.4834	30936.66	3.5460	3.5461	-1.5135	6.44	0.45	-0.750			
0.4879	31228.29	3.5430	3.5430	-1.5171	6.44	0.45	-0.750			
0.4924	31514.25	3.5400	3.5398	-1.5234	6.44	0.45	-0.750			
0.4970	31808.37	3.5370	3.5372	-1.5682	6.45	0.46	-0.750			
0.5018	32112.21	3.5340	3.5341	-1.5631	6.45	0.46	-0.750			
0.5066	32424.22	3.5310	3.5311	-1.5779	6.45	0.46	-0.750			
0.5115	32736.66	3.5280	3.5280	-1.5898	6.45	0.46	-0.750			
0.5162	33038.87	3.5250	3.5250	-1.5883	6.45	0.46	-0.750			
0.5210	33343.43	3.5220	3.5219	-1.5748	6.45	0.46	-0.750			
0.5256	33637.49	3.5190	3.5189	-1.5771	6.45	0.46	-0.750			
0.5303	33937.40	3.5160	3.5160	-1.5955	6.45	0.46	-0.750			
0.5352	34251.16	3.5130	3.5128	-1.6092	6.45	0.46	-0.750			
0.5400	34558.76	3.5100	3.5101	-1.6190	6.45	0.46	-0.750			
0.5449	34874.88	3.5070	3.5073	-1.6401	6.46	0.47	-0.750			
0.5498	35188.62	3.5040	3.5039	-1.6385	6.47	0.48	-0.750			
0.5548	35506.95	3.5010	3.5008	-1.6447	6.47	0.48	-0.750			
0.5597	35819.89	3.4980	3.4979	-1.6440	6.47	0.48	-0.750			
0.5647	36139.55	3.4950	3.4952	-1.6456	6.47	0.48	-0.750			
0.5696	36453.29	3.4920	3.4917	-1.6364	6.48	0.49	-0.750			
0.5745	36768.10	3.4890	3.4890	-1.6220	6.49	0.50	-0.750			
0.5794	37082.28	3.4860	3.4857	-1.6026	6.49	0.50	-0.750			
0.5843	37392.79	3.4830	3.4828	-1.6053	6.50	0.51	-0.750			
0.5890	37696.01	3.4800	3.4801	-1.5726	6.51	0.52	-0.750			
0.5937	37997.29	3.4770	3.4768	-1.5605	6.52	0.53	-0.750			
0.5983	38293.98	3.4740	3.4743	-1.5470	6.52	0.53	-0.750			
0.6030	38590.35	3.4710	3.4711	-1.5300	6.53	0.54	-0.750			
0.6076	38889.09	3.4680	3.4678	-1.5276	6.54	0.55	-0.750			
0.6122	39178.60	3.4650	3.4650	-1.5174	6.55	0.56	-0.750			
0.6167	39467.52	3.4620	3.4620	-1.5037	6.55	0.56	-0.750			
0.6212	39760.00	3.4590	3.4589	-1.4896	6.56	0.57	-0.750			
0.6257	40042.31	3.4560	3.4558	-1.4721	6.57	0.58	-0.750			
0.6300	40322.98	3.4530	3.4530	-1.4538	6.58	0.59	-0.750			
0.6344	40603.58	3.4500	3.4499	-1.4418	6.59	0.60	-0.750			
0.6387	40879.44	3.4470	3.4472	-1.4217	6.61	0.62	-0.750			
0.6430	41153.32	3.4440	3.4439	-1.4068	6.62	0.63	-0.750			
0.6472	41419.68	3.4410	3.4410	-1.3745	6.62	0.63	-0.750			
0.6513	41681.23	3.4380	3.4382	-1.3528	6.63	0.64	-0.750			
0.6553	41939.42	3.4350	3.4349	-1.3256	6.64	0.65	-0.750			
0.6592	42188.68	3.4320	3.4320	-1.2922	6.65	0.66	-0.750			
0.6630	42432.18	3.4290	3.4291	-1.2671	6.67	0.68	-0.750			
0.6668	42672.34	3.4260	3.4260	-1.2387	6.68	0.69	-0.750			
0.6705	42909.12	3.4230	3.4229	-1.2185	6.69	0.70	-0.750			
0.6741	43140.67	3.4200	3.4200	-1.1931	6.70	0.71	-0.750			
0.6776	43365.65	3.4170	3.4171	-1.1707	6.71	0.72	-0.750			
0.6812	43594.79	3.4140	3.4140	-1.1509	6.72	0.73	-0.750			
0.6846	43814.05	3.4110	3.4109	-1.1128	6.74	0.75	-0.750			
0.6879	44023.00	3.4080	3.4080	-1.0864	6.75	0.76	-0.750			
0.6911	44228.43	3.4050	3.4051	-1.0652	6.76	0.77	-0.750			
0.6942	44429.89	3.4020	3.4018	-1.0282	6.77	0.78	-0.750			
0.6973	44624.91	3.3990	3.3990	-0.9952	6.79	0.80	-0.750			
0.7002	44810.68	3.3960	3.3961	-0.9644	6.80	0.81	-0.750			
0.7031	44996.89	3.3930	3.3930	-0.9480	6.81	0.82	-0.750			
0.7059	45175.17	3.3900	3.3898	-0.9253	6.82	0.83	-0.750			
0.7086	45348.12	3.3870	3.3869	-0.8952	6.83	0.84	-0.750			
0.7112	45516.90	3.3840	3.3840	-0.8724	6.84	0.85	-0.750			
0.7138	45685.65	3.3810	3.3814	-0.8537	6.85	0.86	-0.750			
0.7164	45849.10	3.3780	3.3778	-0.8310	6.86	0.87	-0.750			
0.7188	46004.95	3.3750	3.3750	-0.8050	6.88	0.89	-0.750			
0.7212	46154.17	3.3720	3.3720	-0.7781	6.89	0.90	-0.750			
0.7235	46304.54	3.3690	3.3691	-0.7632	6.90	0.91	-0.750			
0.7257	46447.97	3.3660	3.3658	-0.7347	6.92	0.93	-0.750			
0.7279	46585.93	3.3630	3.3629	-0.7105	6.93	0.94	-0.750			
0.7300	46719.99	3.3600	3.3600	-0.6854	6.94	0.95	-0.750			
