Ah_balance (normalized)	Ah_balance (mAh)	Voltage - fit (V)	Voltage -  interpolate (V)	dQ/dV (1/V)	Temperature (°C)	Temperature - diff (°C)	Current (C)	R_DC 0ms (mOhm)	R_DC 50ms (mOhm)	R_DC 50 ms PEC (mOhm)
0.1779	11385.31	4.0820	4.0820	0.7330	7.46	1.47	0.750			
0.1801	11526.88	4.0790	4.0790	0.7440	7.46	1.47	0.750			
0.1824	11672.15	4.0760	4.0760	0.7591	7.45	1.46	0.750			
0.1847	11819.47	4.0730	4.0730	0.7686	7.45	1.46	0.750			
0.1870	11969.41	4.0700	4.0699	0.7763	7.45	1.46	0.750			
0.1894	12119.88	4.0670	4.0670	0.7742	7.44	1.45	0.750			
0.1917	12267.81	4.0640	4.0640	0.7802	7.44	1.45	0.750			
0.1940	12417.53	4.0610	4.0610	0.7840	7.44	1.45	0.750			
0.1964	12567.42	4.0580	4.0580	0.7846	7.43	1.44	0.750			
0.1987	12718.76	4.0550	4.0550	0.7883	7.43	1.44	0.750			
0.2011	12871.71	4.0520	4.0521	0.7895	7.42	1.43	0.750			
0.2035	13022.09	4.0490	4.0490	0.7977	7.42	1.43	0.750			
0.2059	13176.74	4.0460	4.0460	0.8045	7.42	1.43	0.750			
0.2083	13331.22	4.0430	4.0430	0.8015	7.41	1.42	0.750			
0.2107	13485.53	4.0400	4.0399	0.8059	7.41	1.42	0.750			
0.2132	13642.83	4.0370	4.0372	0.8034	7.40	1.41	0.750			
0.2156	13796.52	4.0340	4.0340	0.8076	7.39	1.40	0.750			
0.2180	13950.81	4.0310	4.0309	0.8079	7.38	1.39	0.750			
0.2204	14103.27	4.0280	4.0281	0.8098	7.38	1.39	0.750			
0.2228	14259.35	4.0250	4.0248	0.8166	7.37	1.38	0.750			
0.2253	14419.06	4.0220	4.0220	0.8200	7.37	1.38	0.750			
0.2278	14577.06	4.0190	4.0191	0.8264	7.36	1.37	0.750			
0.2303	14736.86	4.0160	4.0160	0.8318	7.36	1.37	0.750			
0.2328	14896.21	4.0130	4.0130	0.8323	7.35	1.36	0.750			
0.2353	15056.13	4.0100	4.0098	0.8361	7.35	1.36	0.750			
0.2378	15218.19	4.0070	4.0070	0.8337	7.35	1.36	0.750			
0.2403	15379.22	4.0040	4.0041	0.8410	7.34	1.35	0.750			
0.2428	15539.98	4.0010	4.0010	0.8450	7.34	1.35	0.750			
0.2453	15701.87	3.9980	3.9980	0.8450	7.33	1.34	0.750			
0.2479	15864.54	3.9950	3.9949	0.8464	7.33	1.34	0.750			
0.2505	16028.91	3.9920	3.9920	0.8463	7.32	1.33	0.750			
0.2530	16192.08	3.9890	3.9890	0.8536	7.31	1.32	0.750			
0.2556	16355.73	3.9860	3.9860	0.8607	7.30	1.31	0.750			
0.2581	16516.80	3.9830	3.9832	0.8741	7.30	1.31	0.750			
0.2607	16683.39	3.9800	3.9799	0.8910	7.29	1.30	0.750			
0.2634	16859.15	3.9770	3.9769	0.9046	7.28	1.29	0.750			
0.2662	17036.55	3.9740	3.9739	0.9203	7.27	1.28	0.750			
0.2690	17216.90	3.9710	3.9713	0.9229	7.26	1.27	0.750			
0.2718	17397.40	3.9680	3.9679	0.9213	7.25	1.26	0.750			
0.2746	17575.19	3.9650	3.9650	0.9155	7.25	1.26	0.750			
0.2773	17748.49	3.9620	3.9620	0.9085	7.24	1.25	0.750			
0.2800	17919.43	3.9590	3.9590	0.9083	7.24	1.25	0.750			
0.2827	18095.53	3.9560	3.9560	0.9110	7.23	1.24	0.750			
0.2854	18268.65	3.9530	3.9529	0.9093	7.23	1.24	0.750			
0.2882	18445.48	3.9500	3.9500	0.9044	7.22	1.23	0.750			
0.2909	18617.80	3.9470	3.9471	0.9154	7.21	1.22	0.750			
0.2936	18792.59	3.9440	3.9440	0.9239	7.20	1.21	0.750			
0.2964	18969.05	3.9410	3.9410	0.9294	7.19	1.20	0.750			
0.2992	19150.06	3.9380	3.9380	0.9358	7.18	1.19	0.750			
0.3021	19331.82	3.9350	3.9351	0.9505	7.18	1.19	0.750			
0.3049	19516.22	3.9320	3.9321	0.9562	7.17	1.18	0.750			
0.3078	19702.01	3.9290	3.9290	0.9653	7.16	1.17	0.750			
0.3107	19883.92	3.9260	3.9260	0.9614	7.15	1.16	0.750			
0.3136	20070.42	3.9230	3.9230	0.9681	7.14	1.15	0.750			
0.3165	20256.26	3.9200	3.9200	0.9753	7.13	1.14	0.750			
0.3194	20443.99	3.9170	3.9171	0.9825	7.12	1.13	0.750			
0.3224	20632.08	3.9140	3.9138	0.9907	7.11	1.12	0.750			
0.3254	20823.67	3.9110	3.9110	1.0020	7.10	1.11	0.750			
0.3284	21016.20	3.9080	3.9080	1.0138	7.09	1.10	0.750			
0.3314	21211.64	3.9050	3.9050	1.0291	7.08	1.09	0.750			
0.3345	21411.04	3.9020	3.9018	1.0441	7.07	1.08	0.750			
0.3377	21613.79	3.8990	3.8990	1.0450	7.06	1.07	0.750			
0.3408	21814.39	3.8960	3.8960	1.0586	7.05	1.06	0.750			
0.3440	22018.10	3.8930	3.8931	1.0681	7.04	1.05	0.750			
0.3473	22225.98	3.8900	3.8897	1.0759	7.03	1.04	0.750			
0.3505	22429.87	3.8870	3.8871	1.0879	7.02	1.03	0.750			
0.3538	22640.25	3.8840	3.8841	1.1018	7.00	1.01	0.750			
0.3571	22854.64	3.8810	3.8810	1.1159	6.98	0.99	0.750			
0.3605	23072.73	3.8780	3.8778	1.1149	6.97	0.98	0.750			
0.3638	23285.30	3.8750	3.8752	1.1298	6.96	0.97	0.750			
0.3672	23502.71	3.8720	3.8720	1.1509	6.96	0.97	0.750			
0.3707	23725.39	3.8690	3.8690	1.1680	6.95	0.96	0.750			
0.3742	23949.91	3.8660	3.8661	1.1789	6.94	0.95	0.750			
0.3778	24178.73	3.8630	3.8632	1.2028	6.93	0.94	0.750			
0.3814	24411.47	3.8600	3.8600	1.2235	6.92	0.93	0.750			
0.3852	24652.42	3.8570	3.8570	1.2326	6.91	0.92	0.750			
0.3888	24885.93	3.8540	3.8541	1.2422	6.89	0.90	0.750			
0.3925	25122.63	3.8510	3.8510	1.2707	6.87	0.88	0.750			
0.3964	25369.22	3.8480	3.8480	1.2762	6.86	0.87	0.750			
0.4001	25608.03	3.8450	3.8451	1.3216	6.84	0.85	0.750			
0.4042	25866.15	3.8420	3.8420	1.3728	6.83	0.84	0.750	0.400	0.915	
0.4084	26135.65	3.8390	3.8392	1.4345	6.82	0.83	0.750			
0.4127	26414.44	3.8360	3.8363	1.4443	6.80	0.81	0.750			
0.4172	26699.57	3.8330	3.8331	1.4643	6.79	0.80	0.750			
0.4218	26993.51	3.8300	3.8298	1.4885	6.77	0.78	0.750			
0.4260	27266.54	3.8270	3.8272	1.4610	6.76	0.77	0.750			
0.4304	27546.37	3.8240	3.8240	1.4891	6.74	0.75	0.750			
0.4349	27834.88	3.8210	3.8209	1.5126	6.73	0.74	0.750			
0.4395	28129.70	3.8180	3.8181	1.5404	6.72	0.73	0.750			
0.4442	28427.36	3.8150	3.8151	1.5745	6.70	0.71	0.750			
0.4489	28731.95	3.8120	3.8120	1.6283	6.69	0.70	0.750			
0.4539	29048.15	3.8090	3.8088	1.6503	6.67	0.68	0.750			
0.4589	29367.36	3.8060	3.8060	1.6801	6.65	0.66	0.750			
0.4640	29697.61	3.8030	3.8032	1.7022	6.63	0.64	0.750			
0.4692	30030.55	3.8000	3.8001	1.7411	6.61	0.62	0.750			
0.4744	30364.20	3.7970	3.7970	1.7439	6.58	0.59	0.750			
0.4797	30698.88	3.7940	3.7939	1.7989	6.57	0.58	0.750			
0.4851	31046.15	3.7910	3.7909	1.8099	6.55	0.56	0.750			
0.4906	31401.58	3.7880	3.7879	1.8300	6.53	0.54	0.750			
0.4962	31758.88	3.7850	3.7850	1.8624	6.51	0.52	0.750			
0.5019	32121.10	3.7820	3.7823	1.8728	6.50	0.51	0.750			
0.5076	32483.42	3.7790	3.7792	1.8947	6.48	0.49	0.750			
0.5132	32844.63	3.7760	3.7762	1.9090	6.46	0.47	0.750			
0.5190	33214.95	3.7730	3.7730	1.9404	6.44	0.45	0.750			
0.5248	33590.26	3.7700	3.7700	1.9659	6.42	0.43	0.750			
0.5308	33971.54	3.7670	3.7670	2.0094	6.40	0.41	0.750			
0.5368	34356.70	3.7640	3.7640	2.0064	6.38	0.39	0.750			
0.5427	34734.39	3.7610	3.7610	2.0491	6.36	0.37	0.750			
0.5490	35138.27	3.7580	3.7580	2.0891	6.34	0.35	0.750			
0.5554	35542.89	3.7550	3.7550	2.1323	6.32	0.33	0.750			
0.5619	35959.88	3.7520	3.7521	2.1457	6.30	0.31	0.750			
0.5683	36372.61	3.7490	3.7490	2.1530	6.28	0.29	0.750			
0.5746	36775.21	3.7460	3.7461	2.1846	6.26	0.27	0.750			
0.5813	37202.47	3.7430	3.7430	2.2697	6.24	0.25	0.750			
0.5882	37643.89	3.7400	3.7400	2.3819	6.22	0.23	0.750			
0.5956	38120.43	3.7370	3.7370	2.4271	6.20	0.21	0.750			
0.6030	38594.20	3.7340	3.7341	2.4935	6.17	0.18	0.750			
0.6106	39078.36	3.7310	3.7310	2.5247	6.15	0.16	0.750			
0.6182	39566.01	3.7280	3.7280	2.5494	6.13	0.14	0.750			
0.6260	40064.47	3.7250	3.7248	2.4940	6.11	0.12	0.750			
0.6336	40550.37	3.7220	3.7221	2.4623	6.09	0.10	0.750			
0.6409	41016.67	3.7190	3.7188	2.3335	6.08	0.09	0.750			
0.6476	41446.48	3.7160	3.7154	2.1117	6.06	0.07	0.750			
0.6536	41831.47	3.7130	3.7127	1.9254	6.05	0.06	0.750			
0.6589	42171.24	3.7100	3.7101	1.6635	6.04	0.05	0.750			
0.6638	42482.00	3.7070	3.7069	1.5357	6.03	0.04	0.750			
0.6680	42748.81	3.7040	3.7041	1.3518	6.02	0.03	0.750			
0.6716	42981.62	3.7010	3.7009	1.2130	6.01	0.02	0.750			
0.6751	43203.89	3.6980	3.6980	1.1080	6.01	0.02	0.750			
0.6781	43395.36	3.6950	3.6950	1.0212	6.00	0.01	0.750			
0.6810	43585.06	3.6920	3.6920	0.9758	6.00	0.01	0.750			
0.6838	43765.35	3.6890	3.6891	0.9253	5.99	0.00	0.750			
0.6865	43938.03	3.6860	3.6861	0.8908	5.99	0.00	0.750			
0.6892	44106.47	3.6830	3.6831	0.8582	5.99	0.00	0.750			
0.6917	44269.19	3.6800	3.6799	0.8255	5.99	0.00	0.750			
0.6942	44428.62	3.6770	3.6770	0.7927	5.99	0.00	0.750			
0.6965	44573.74	3.6740	3.6740	0.7475	5.99	0.00	0.750			
0.6986	44713.57	3.6710	3.6711	0.7119	5.99	0.00	0.750			
0.7007	44846.31	3.6680	3.6680	0.6741	5.99	0.00	0.750			
0.7027	44971.44	3.6650	3.6649	0.6373	5.99	0.00	0.750			
0.7045	45090.90	3.6620	3.6620	0.5998	5.99	0.00	0.750			
0.7063	45202.49	3.6590	3.6590	0.5612	5.99	0.00	0.750			
0.7080	45309.31	3.6560	3.6560	0.5253	5.99	0.00	0.750			
0.7095	45405.07	3.6530	3.6530	0.4833	5.99	0.00	0.750			
0.7108	45493.09	3.6500	3.6499	0.4421	5.99	0.00	0.750			
0.7121	45574.19	3.6470	3.6471	0.4049	5.99	0.00	0.750			
0.7132	45647.14	3.6440	3.6440	0.3676	5.99	0.00	0.750			
0.7143	45714.46	3.6410	3.6410	0.3342	5.99	0.00	0.750			
0.7152	45774.81	3.6380	3.6380	0.2994	5.99	0.00	0.750			
0.7161	45829.41	3.6350	3.6349	0.2678	5.99	0.00	0.750			
0.7169	45878.58	3.6320	3.6319	0.2304	5.99	0.00	0.750			
0.7175	45920.15	3.6290	3.6289	0.1960	5.99	0.00	0.750			
0.7180	45954.55	3.6260	3.6260	0.1585	5.99	0.00	0.750			
0.7185	45982.09	3.6230	3.6232	0.1200	5.99	0.00	0.750			
0.7188	46001.90	3.6200	3.6204	0.0790	5.99	0.00	0.750			
0.7190	46014.52	3.6170	3.6169	0.0328	5.99	0.00	0.750			
0.7190	46016.35	3.6140	3.6158	-0.0138	5.99	0.00	0.750			
