Ah_balance (normalized)	Ah_balance (mAh)	Voltage - fit (V)	Voltage -  interpolate (V)	dQ/dV (1/V)	Temperature (°C)	Temperature - diff (°C)	Current (C)	R_DC 0ms (mOhm)	R_DC 50ms (mOhm)	R_DC 50 ms PEC (mOhm)
0.1823	11667.61	4.0800	4.0800	0.7733	7.41	1.42	0.750			
0.1846	11815.29	4.0770	4.0771	0.7711	7.40	1.41	0.750			
0.1869	11963.63	4.0740	4.0741	0.7734	7.40	1.41	0.750			
0.1893	12112.19	4.0710	4.0709	0.7755	7.39	1.40	0.750			
0.1916	12261.29	4.0680	4.0680	0.7759	7.39	1.40	0.750			
0.1939	12409.24	4.0650	4.0651	0.7757	7.38	1.39	0.750			
0.1963	12560.07	4.0620	4.0619	0.7809	7.38	1.39	0.750			
0.1986	12709.50	4.0590	4.0588	0.7843	7.37	1.38	0.750			
0.2009	12860.07	4.0560	4.0560	0.7823	7.37	1.38	0.750			
0.2033	13011.69	4.0530	4.0530	0.7778	7.37	1.38	0.750			
0.2056	13160.09	4.0500	4.0500	0.7862	7.37	1.38	0.750			
0.2080	13309.75	4.0470	4.0471	0.7976	7.37	1.38	0.750			
0.2104	13462.45	4.0440	4.0439	0.8021	7.37	1.38	0.750			
0.2128	13618.89	4.0410	4.0410	0.8060	7.37	1.38	0.750			
0.2153	13777.16	4.0380	4.0381	0.8057	7.36	1.37	0.750			
0.2177	13932.19	4.0350	4.0352	0.8143	7.36	1.37	0.750			
0.2202	14090.38	4.0320	4.0320	0.8165	7.36	1.37	0.750			
0.2225	14242.51	4.0290	4.0289	0.8133	7.35	1.36	0.750			
0.2250	14399.72	4.0260	4.0260	0.8153	7.35	1.36	0.750			
0.2275	14560.41	4.0230	4.0230	0.8153	7.34	1.35	0.750			
0.2299	14715.54	4.0200	4.0202	0.8196	7.34	1.35	0.750			
0.2324	14874.57	4.0170	4.0170	0.8224	7.34	1.35	0.750			
0.2348	15028.57	4.0140	4.0140	0.8199	7.33	1.34	0.750			
0.2373	15184.75	4.0110	4.0110	0.8252	7.33	1.34	0.750			
0.2398	15346.82	4.0080	4.0081	0.8191	7.32	1.33	0.750			
0.2423	15507.00	4.0050	4.0049	0.8323	7.32	1.33	0.750			
0.2448	15665.63	4.0020	4.0021	0.8358	7.32	1.33	0.750			
0.2473	15824.65	3.9990	3.9992	0.8353	7.31	1.32	0.750			
0.2498	15985.40	3.9960	3.9961	0.8412	7.31	1.32	0.750			
0.2523	16147.65	3.9930	3.9931	0.8448	7.31	1.32	0.750			
0.2548	16309.93	3.9900	3.9901	0.8507	7.31	1.32	0.750			
0.2574	16474.82	3.9870	3.9870	0.8614	7.30	1.31	0.750			
0.2600	16640.25	3.9840	3.9840	0.8610	7.30	1.31	0.750			
0.2626	16807.28	3.9810	3.9810	0.8668	7.30	1.31	0.750			
0.2653	16976.44	3.9780	3.9781	0.8651	7.30	1.31	0.750			
0.2678	17139.93	3.9750	3.9751	0.8746	7.29	1.30	0.750			
0.2704	17308.39	3.9720	3.9720	0.8791	7.29	1.30	0.750			
0.2731	17477.24	3.9690	3.9689	0.8805	7.29	1.30	0.750			
0.2757	17646.06	3.9660	3.9660	0.8863	7.28	1.29	0.750			
0.2784	17818.75	3.9630	3.9632	0.8823	7.28	1.29	0.750			
0.2810	17986.27	3.9600	3.9601	0.8935	7.27	1.28	0.750			
0.2837	18157.36	3.9570	3.9570	0.8964	7.26	1.27	0.750			
0.2864	18329.82	3.9540	3.9533	0.9049	7.25	1.26	0.750			
0.2892	18507.06	3.9510	3.9512	0.9074	7.25	1.26	0.750			
0.2919	18681.77	3.9480	3.9481	0.9158	7.24	1.25	0.750			
0.2947	18859.49	3.9450	3.9451	0.9271	7.24	1.25	0.750			
0.2974	19035.45	3.9420	3.9421	0.9208	7.23	1.24	0.750			
0.3002	19212.41	3.9390	3.9391	0.9307	7.23	1.24	0.750			
0.3030	19393.29	3.9360	3.9360	0.9346	7.22	1.23	0.750			
0.3058	19572.38	3.9330	3.9331	0.9470	7.21	1.22	0.750			
0.3087	19757.61	3.9300	3.9301	0.9622	7.20	1.21	0.750			
0.3116	19941.08	3.9270	3.9268	0.9640	7.19	1.20	0.750			
0.3145	20126.00	3.9240	3.9240	0.9774	7.19	1.20	0.750			
0.3174	20313.22	3.9210	3.9211	0.9763	7.18	1.19	0.750			
0.3203	20502.07	3.9180	3.9181	0.9848	7.18	1.19	0.750			
0.3233	20690.55	3.9150	3.9146	0.9902	7.17	1.18	0.750			
0.3263	20881.29	3.9120	3.9122	0.9962	7.16	1.17	0.750			
0.3293	21072.35	3.9090	3.9091	1.0088	7.15	1.16	0.750			
0.3323	21268.17	3.9060	3.9060	1.0221	7.14	1.15	0.750			
0.3355	21470.52	3.9030	3.9028	1.0410	7.13	1.14	0.750			
0.3385	21665.51	3.9000	3.9000	1.0302	7.13	1.14	0.750			
0.3417	21865.73	3.8970	3.8971	1.0446	7.12	1.13	0.750			
0.3448	22066.77	3.8940	3.8941	1.0530	7.12	1.13	0.750			
0.3479	22265.08	3.8910	3.8908	1.0790	7.11	1.12	0.750			
0.3512	22477.11	3.8880	3.8881	1.0670	7.10	1.11	0.750			
0.3544	22681.47	3.8850	3.8850	1.0906	7.09	1.10	0.750			
0.3577	22892.85	3.8820	3.8819	1.1043	7.07	1.08	0.750			
0.3611	23109.17	3.8790	3.8789	1.1151	7.06	1.07	0.750			
0.3644	23320.59	3.8760	3.8762	1.1312	7.05	1.06	0.750			
0.3678	23538.72	3.8730	3.8731	1.1450	7.04	1.05	0.750			
0.3713	23760.25	3.8700	3.8700	1.1583	7.04	1.05	0.750			
0.3748	23985.77	3.8670	3.8670	1.1642	7.03	1.04	0.750			
0.3783	24210.13	3.8640	3.8641	1.1855	7.02	1.03	0.750			
0.3819	24440.77	3.8610	3.8611	1.2092	7.00	1.01	0.750			
0.3856	24678.29	3.8580	3.8577	1.2090	6.99	1.00	0.750			
0.3891	24905.56	3.8550	3.8552	1.2290	6.98	0.99	0.750			
0.3929	25144.51	3.8520	3.8521	1.2645	6.96	0.97	0.750			
0.3968	25393.24	3.8490	3.8490	1.2769	6.94	0.95	0.750			
0.4007	25642.09	3.8460	3.8459	1.2646	6.92	0.93	0.750			
0.4044	25881.48	3.8430	3.8433	1.3156	6.91	0.92	0.750			
0.4084	26140.51	3.8400	3.8401	1.3404	6.90	0.91	0.750			
0.4125	26400.71	3.8370	3.8365	1.3821	6.89	0.90	0.750	0.410	0.940	
0.4166	26663.36	3.8340	3.8344	1.4040	6.87	0.88	0.750			
0.4209	26940.62	3.8310	3.8313	1.4358	6.86	0.87	0.750			
0.4254	27226.38	3.8280	3.8281	1.4914	6.84	0.85	0.750			
0.4298	27505.46	3.8250	3.8250	1.4914	6.83	0.84	0.750			
0.4344	27799.62	3.8220	3.8221	1.5285	6.81	0.82	0.750			
0.4390	28098.05	3.8190	3.8192	1.5486	6.79	0.80	0.750			
0.4437	28398.06	3.8160	3.8159	1.6058	6.77	0.78	0.750			
0.4486	28708.84	3.8130	3.8129	1.6072	6.75	0.76	0.750			
0.4535	29023.38	3.8100	3.8103	1.6219	6.74	0.75	0.750			
0.4584	29336.83	3.8070	3.8074	1.6897	6.72	0.73	0.750			
0.4636	29668.96	3.8040	3.8039	1.7063	6.70	0.71	0.750			
0.4686	29989.74	3.8010	3.8006	1.7306	6.68	0.69	0.750			
0.4739	30331.86	3.7980	3.7978	1.7860	6.65	0.66	0.750			
0.4795	30686.99	3.7950	3.7952	1.8346	6.63	0.64	0.750			
0.4851	31049.39	3.7920	3.7920	1.8480	6.61	0.62	0.750			
0.4908	31413.64	3.7890	3.7889	1.8911	6.59	0.60	0.750			
0.4964	31767.59	3.7860	3.7858	1.8993	6.56	0.57	0.750			
0.5021	32137.20	3.7830	3.7828	1.9315	6.54	0.55	0.750			
0.5080	32514.99	3.7800	3.7803	1.9040	6.52	0.53	0.750			
0.5139	32887.15	3.7770	3.7770	1.9665	6.50	0.51	0.750			
0.5197	33261.70	3.7740	3.7738	1.9666	6.47	0.48	0.750			
0.5256	33639.19	3.7710	3.7712	1.9987	6.44	0.45	0.750			
0.5318	34034.77	3.7680	3.7679	2.0632	6.42	0.43	0.750			
0.5381	34440.98	3.7650	3.7650	2.1104	6.40	0.41	0.750			
0.5446	34853.67	3.7620	3.7619	2.1342	6.37	0.38	0.750			
0.5508	35249.95	3.7590	3.7592	2.1429	6.34	0.35	0.750			
0.5573	35665.53	3.7560	3.7559	2.1364	6.32	0.33	0.750			
0.5636	36067.93	3.7530	3.7532	2.1565	6.30	0.31	0.750			
0.5702	36489.86	3.7500	3.7500	2.2183	6.27	0.28	0.750			
0.5770	36927.67	3.7470	3.7470	2.3170	6.24	0.25	0.750			
0.5842	37387.78	3.7440	3.7439	2.3678	6.22	0.23	0.750			
0.5913	37841.96	3.7410	3.7412	2.4237	6.19	0.20	0.750			
0.5986	38313.12	3.7380	3.7381	2.5037	6.16	0.17	0.750			
0.6061	38792.23	3.7350	3.7350	2.6477	6.14	0.15	0.750			
0.6142	39309.99	3.7320	3.7320	2.6253	6.11	0.12	0.750			
0.6223	39825.05	3.7290	3.7294	2.6367	6.09	0.10	0.750			
0.6301	40323.21	3.7260	3.7262	2.6435	6.07	0.08	0.750			
0.6383	40850.51	3.7230	3.7230	2.7122	6.04	0.05	0.750			
0.6462	41356.74	3.7200	3.7201	2.5892	6.02	0.03	0.750			
0.6539	41849.10	3.7170	3.7170	2.4480	6.00	0.01	0.750			
0.6610	42306.54	3.7140	3.7137	2.2746	5.99	0.00	0.750			
0.6676	42726.87	3.7110	3.7108	2.0680	5.98	-0.01	0.750			
0.6734	43100.62	3.7080	3.7080	1.8319	5.98	-0.01	0.750			
0.6786	43432.60	3.7050	3.7045	1.6365	5.98	-0.01	0.750			
0.6832	43723.91	3.7020	3.7022	1.4458	5.97	-0.02	0.750			
0.6871	43971.32	3.6990	3.6990	1.2665	5.97	-0.02	0.750			
0.6905	44189.56	3.6960	3.6961	1.1372	5.96	-0.03	0.750			
0.6935	44386.16	3.6930	3.6930	1.0185	5.96	-0.03	0.750			
0.6965	44575.21	3.6900	3.6900	0.9635	5.95	-0.04	0.750			
0.6992	44749.47	3.6870	3.6868	0.9057	5.95	-0.04	0.750			
0.7019	44918.44	3.6840	3.6841	0.8678	5.95	-0.04	0.750			
0.7044	45081.77	3.6810	3.6810	0.8303	5.96	-0.03	0.750			
0.7069	45239.02	3.6780	3.6782	0.7982	5.96	-0.03	0.750			
0.7092	45387.82	3.6750	3.6749	0.7554	5.97	-0.02	0.750			
0.7114	45530.76	3.6720	3.6718	0.7157	5.97	-0.02	0.750			
0.7135	45665.21	3.6690	3.6690	0.6734	5.97	-0.02	0.750			
0.7155	45791.18	3.6660	3.6661	0.6287	5.98	-0.01	0.750			
0.7173	45908.01	3.6630	3.6630	0.5850	5.98	-0.01	0.750			
0.7190	46016.38	3.6600	3.6600	0.5390	5.98	-0.01	0.750			
0.7205	46113.05	3.6570	3.6570	0.4950	5.98	-0.01	0.750			
0.7219	46204.03	3.6540	3.6539	0.4570	5.99	-0.00	0.750			
0.7233	46288.30	3.6510	3.6511	0.4195	5.99	-0.00	0.750			
0.7244	46364.65	3.6480	3.6481	0.3805	5.99	0.00	0.750			
0.7255	46434.54	3.6450	3.6450	0.3455	5.99	0.00	0.750			
0.7265	46496.79	3.6420	3.6420	0.3090	5.99	0.00	0.750			
0.7274	46552.65	3.6390	3.6389	0.2739	6.00	0.01	0.750			
0.7282	46601.76	3.6360	3.6359	0.2338	6.00	0.01	0.750			
0.7288	46643.89	3.6330	3.6330	0.1984	6.00	0.01	0.750			
0.7294	46679.09	3.6300	3.6301	0.1614	6.00	0.01	0.750			
0.7298	46707.78	3.6270	3.6272	0.1231	6.00	0.01	0.750			
0.7301	46727.67	3.6240	3.6246	0.0815	6.00	0.01	0.750			
0.7303	46739.73	3.6210	3.6221	0.0379	6.00	0.01	0.750			
0.7304	46742.85	3.6180	3.6206	-0.0054	6.00	0.01	0.750			
