Ah_balance (normalized)	Ah_balance (mAh)	Voltage - fit (V)	Voltage -  interpolate (V)	dQ/dV (1/V)	Temperature (°C)	Temperature - diff (°C)	Current (C)	R_DC 0ms (mOhm)	R_DC 50ms (mOhm)	R_DC 50 ms PEC (mOhm)
0.1798	11506.11	4.0810	4.0810	0.7316	7.02	1.05	0.750			
0.1821	11652.87	4.0780	4.0780	0.7686	7.01	1.04	0.750			
0.1844	11801.22	4.0750	4.0748	0.7753	7.01	1.04	0.750			
0.1867	11951.10	4.0720	4.0721	0.7796	7.01	1.04	0.750			
0.1891	12103.01	4.0690	4.0691	0.7785	7.00	1.03	0.750			
0.1914	12251.16	4.0660	4.0659	0.7879	7.00	1.03	0.750			
0.1938	12403.42	4.0630	4.0630	0.7943	7.00	1.03	0.750			
0.1962	12554.20	4.0600	4.0599	0.7940	6.99	1.02	0.750			
0.1986	12708.67	4.0570	4.0571	0.8030	6.99	1.02	0.750			
0.2010	12866.05	4.0540	4.0541	0.8033	6.98	1.01	0.750			
0.2034	13020.59	4.0510	4.0509	0.8061	6.98	1.01	0.750			
0.2059	13176.07	4.0480	4.0481	0.8091	6.98	1.01	0.750			
0.2083	13328.09	4.0450	4.0450	0.8076	6.97	1.00	0.750			
0.2107	13484.54	4.0420	4.0419	0.8135	6.97	1.00	0.750			
0.2132	13644.38	4.0390	4.0389	0.8082	6.97	1.00	0.750			
0.2156	13797.42	4.0360	4.0362	0.8103	6.97	1.00	0.750			
0.2180	13954.81	4.0330	4.0330	0.8186	6.97	1.00	0.750			
0.2205	14109.23	4.0300	4.0300	0.8212	6.97	1.00	0.750			
0.2229	14265.95	4.0270	4.0270	0.8226	6.97	1.00	0.750			
0.2254	14425.31	4.0240	4.0241	0.8275	6.96	0.99	0.750			
0.2279	14587.20	4.0210	4.0211	0.8377	6.95	0.98	0.750			
0.2305	14750.13	4.0180	4.0180	0.8397	6.94	0.97	0.750			
0.2330	14909.66	4.0150	4.0151	0.8410	6.94	0.97	0.750			
0.2355	15071.08	4.0120	4.0120	0.8438	6.93	0.96	0.750			
0.2381	15235.71	4.0090	4.0090	0.8412	6.93	0.96	0.750			
0.2406	15398.55	4.0060	4.0061	0.8446	6.93	0.96	0.750			
0.2431	15558.95	4.0030	4.0031	0.8483	6.93	0.96	0.750			
0.2456	15721.21	4.0000	4.0002	0.8554	6.93	0.96	0.750			
0.2482	15885.57	3.9970	3.9970	0.8588	6.93	0.96	0.750			
0.2508	16051.19	3.9940	3.9941	0.8575	6.92	0.95	0.750			
0.2534	16217.96	3.9910	3.9910	0.8630	6.91	0.94	0.750			
0.2560	16384.02	3.9880	3.9881	0.8670	6.91	0.94	0.750			
0.2586	16550.25	3.9850	3.9849	0.8669	6.90	0.93	0.750			
0.2612	16715.90	3.9820	3.9820	0.8676	6.90	0.93	0.750			
0.2638	16881.81	3.9790	3.9790	0.8672	6.90	0.93	0.750			
0.2664	17049.96	3.9760	3.9761	0.8755	6.89	0.92	0.750			
0.2691	17219.81	3.9730	3.9730	0.8860	6.89	0.92	0.750			
0.2717	17388.51	3.9700	3.9698	0.8888	6.89	0.92	0.750			
0.2744	17559.54	3.9670	3.9671	0.8931	6.88	0.91	0.750			
0.2771	17732.36	3.9640	3.9640	0.9030	6.87	0.90	0.750			
0.2798	17908.66	3.9610	3.9610	0.9112	6.87	0.90	0.750			
0.2826	18085.27	3.9580	3.9581	0.9118	6.86	0.89	0.750			
0.2853	18259.78	3.9550	3.9550	0.9071	6.85	0.88	0.750			
0.2880	18434.69	3.9520	3.9520	0.8961	6.84	0.87	0.750			
0.2907	18603.06	3.9490	3.9491	0.9054	6.84	0.87	0.750			
0.2934	18775.03	3.9460	3.9460	0.9189	6.84	0.87	0.750			
0.2961	18952.14	3.9430	3.9429	0.9248	6.83	0.86	0.750			
0.2990	19134.45	3.9400	3.9400	0.9275	6.83	0.86	0.750			
0.3018	19313.88	3.9370	3.9372	0.9475	6.82	0.85	0.750			
0.3047	19497.65	3.9340	3.9341	0.9572	6.82	0.85	0.750			
0.3075	19682.11	3.9310	3.9310	0.9652	6.81	0.84	0.750			
0.3104	19864.28	3.9280	3.9279	0.9603	6.81	0.84	0.750			
0.3133	20050.28	3.9250	3.9252	0.9623	6.80	0.83	0.750			
0.3162	20237.82	3.9220	3.9219	0.9766	6.80	0.83	0.750			
0.3191	20424.20	3.9190	3.9192	0.9844	6.79	0.82	0.750			
0.3221	20611.27	3.9160	3.9157	0.9907	6.79	0.82	0.750			
0.3251	20805.95	3.9130	3.9130	0.9908	6.79	0.82	0.750			
0.3281	20996.68	3.9100	3.9101	1.0005	6.78	0.81	0.750			
0.3311	21189.35	3.9070	3.9071	1.0136	6.78	0.81	0.750			
0.3341	21383.22	3.9040	3.9038	1.0151	6.77	0.80	0.750			
0.3372	21579.85	3.9010	3.9010	1.0120	6.76	0.79	0.750			
0.3402	21771.17	3.8980	3.8981	1.0334	6.75	0.78	0.750			
0.3433	21971.08	3.8950	3.8952	1.0561	6.74	0.77	0.750			
0.3466	22180.57	3.8920	3.8917	1.0846	6.73	0.76	0.750			
0.3498	22386.27	3.8890	3.8891	1.0782	6.73	0.76	0.750			
0.3530	22593.92	3.8860	3.8861	1.0981	6.72	0.75	0.750			
0.3564	22808.39	3.8830	3.8831	1.1178	6.72	0.75	0.750			
0.3598	23028.74	3.8800	3.8795	1.1177	6.71	0.74	0.750			
0.3631	23237.84	3.8770	3.8771	1.1203	6.70	0.73	0.750			
0.3665	23453.85	3.8740	3.8741	1.1377	6.69	0.72	0.750			
0.3699	23674.53	3.8710	3.8711	1.1539	6.68	0.71	0.750			
0.3734	23898.09	3.8680	3.8680	1.1440	6.67	0.70	0.750			
0.3768	24115.13	3.8650	3.8651	1.1751	6.66	0.69	0.750			
0.3803	24342.40	3.8620	3.8621	1.1999	6.66	0.69	0.750			
0.3840	24577.25	3.8590	3.8587	1.2235	6.65	0.68	0.750			
0.3877	24813.50	3.8560	3.8562	1.2394	6.64	0.67	0.750			
0.3915	25054.39	3.8530	3.8531	1.2632	6.63	0.66	0.750			
0.3953	25300.36	3.8500	3.8500	1.2847	6.62	0.65	0.750			
0.3993	25553.01	3.8470	3.8469	1.2961	6.61	0.64	0.750			
0.4030	25789.57	3.8440	3.8442	1.3086	6.61	0.64	0.750			
0.4070	26044.99	3.8410	3.8411	1.3382	6.60	0.63	0.750			
0.4110	26301.53	3.8380	3.8381	1.3890	6.59	0.62	0.750			
0.4152	26573.63	3.8350	3.8355	1.4189	6.57	0.60	0.750	0.375	0.954	
0.4196	26852.57	3.8320	3.8324	1.4543	6.56	0.59	0.750			
0.4242	27148.94	3.8290	3.8293	1.4882	6.54	0.57	0.750			
0.4286	27432.08	3.8260	3.8258	1.5320	6.53	0.56	0.750			
0.4331	27716.14	3.8230	3.8231	1.5027	6.51	0.54	0.750			
0.4377	28011.09	3.8200	3.8198	1.5454	6.50	0.53	0.750			
0.4423	28307.47	3.8170	3.8174	1.5750	6.49	0.52	0.750			
0.4471	28613.29	3.8140	3.8137	1.5851	6.48	0.51	0.750			
0.4519	28919.16	3.8110	3.8112	1.6283	6.47	0.50	0.750			
0.4567	29230.21	3.8080	3.8082	1.6549	6.46	0.49	0.750			
0.4619	29559.06	3.8050	3.8050	1.7003	6.44	0.47	0.750			
0.4669	29884.45	3.8020	3.8022	1.7511	6.43	0.46	0.750			
0.4723	30224.40	3.7990	3.7992	1.7830	6.41	0.44	0.750			
0.4778	30576.85	3.7960	3.7959	1.8185	6.39	0.42	0.750			
0.4834	30935.44	3.7930	3.7929	1.8437	6.37	0.40	0.750			
0.4888	31283.10	3.7900	3.7903	1.8698	6.36	0.39	0.750			
0.4944	31644.15	3.7870	3.7874	1.9138	6.34	0.37	0.750			
0.5002	32015.78	3.7840	3.7835	1.9485	6.32	0.35	0.750			
0.5062	32396.33	3.7810	3.7809	2.0061	6.32	0.35	0.750			
0.5122	32779.43	3.7780	3.7780	2.0232	6.30	0.33	0.750			
0.5183	33172.74	3.7750	3.7751	2.0420	6.28	0.31	0.750			
0.5246	33574.55	3.7720	3.7717	2.0724	6.26	0.29	0.750			
0.5309	33980.21	3.7690	3.7691	2.0835	6.24	0.27	0.750			
0.5373	34385.89	3.7660	3.7660	2.1185	6.22	0.25	0.750			
0.5436	34790.51	3.7630	3.7630	2.1292	6.20	0.23	0.750			
0.5501	35208.29	3.7600	3.7603	2.2032	6.18	0.21	0.750			
0.5569	35638.94	3.7570	3.7572	2.2138	6.16	0.19	0.750			
0.5635	36060.93	3.7540	3.7541	2.2559	6.14	0.17	0.750			
0.5703	36498.31	3.7510	3.7508	2.3301	6.12	0.15	0.750			
0.5772	36943.18	3.7480	3.7481	2.3310	6.10	0.13	0.750			
0.5844	37403.96	3.7450	3.7451	2.3984	6.09	0.12	0.750			
0.5915	37854.34	3.7420	3.7419	2.4912	6.07	0.10	0.750			
0.5991	38345.08	3.7390	3.7389	2.5782	6.05	0.08	0.750			
0.6071	38852.79	3.7360	3.7361	2.6725	6.03	0.06	0.750			
0.6152	39373.31	3.7330	3.7330	2.7756	6.01	0.04	0.750			
0.6237	39914.67	3.7300	3.7301	2.9141	5.99	0.02	0.750			
0.6328	40496.69	3.7270	3.7270	2.9805	5.97	0.00	0.750			
0.6418	41072.09	3.7240	3.7241	2.9319	5.95	-0.02	0.750			
0.6501	41605.75	3.7210	3.7207	2.7158	5.94	-0.03	0.750			
0.6579	42105.57	3.7180	3.7179	2.5981	5.93	-0.04	0.750			
0.6657	42603.42	3.7150	3.7150	2.4203	5.92	-0.05	0.750			
0.6729	43064.36	3.7120	3.7117	2.2459	5.91	-0.06	0.750			
0.6791	43462.24	3.7090	3.7089	1.9927	5.92	-0.05	0.750			
0.6847	43818.69	3.7060	3.7057	1.7468	5.93	-0.04	0.750			
0.6895	44126.36	3.7030	3.7032	1.5439	5.93	-0.04	0.750			
0.6937	44395.23	3.7000	3.7003	1.3477	5.92	-0.05	0.750			
0.6974	44635.26	3.6970	3.6968	1.2023	5.92	-0.05	0.750			
0.7007	44846.97	3.6940	3.6939	1.0791	5.93	-0.04	0.750			
0.7036	45029.60	3.6910	3.6910	0.9711	5.94	-0.03	0.750			
0.7064	45206.58	3.6880	3.6880	0.9163	5.94	-0.03	0.750			
0.7090	45376.20	3.6850	3.6849	0.8630	5.95	-0.02	0.750			
0.7115	45537.12	3.6820	3.6820	0.8155	5.95	-0.02	0.750			
0.7139	45689.80	3.6790	3.6790	0.7715	5.96	-0.01	0.750			
0.7162	45835.44	3.6760	3.6761	0.7210	5.96	-0.01	0.750			
0.7183	45969.78	3.6730	3.6730	0.6747	5.96	-0.01	0.750			
0.7202	46091.80	3.6700	3.6700	0.6215	5.97	-0.00	0.750			
0.7220	46206.13	3.6670	3.6667	0.5748	5.97	-0.00	0.750			
0.7236	46311.61	3.6640	3.6640	0.5279	5.97	0.00	0.750			
0.7251	46408.52	3.6610	3.6610	0.4840	5.97	0.00	0.750			
0.7265	46497.74	3.6580	3.6580	0.4425	5.98	0.01	0.750			
0.7278	46577.91	3.6550	3.6550	0.3986	5.98	0.01	0.750			
0.7289	46650.58	3.6520	3.6520	0.3584	5.98	0.01	0.750			
0.7299	46714.58	3.6490	3.6488	0.3188	5.98	0.01	0.750			
0.7308	46772.15	3.6460	3.6460	0.2837	5.98	0.01	0.750			
0.7316	46823.72	3.6430	3.6430	0.2471	5.99	0.02	0.750			
0.7323	46867.19	3.6400	3.6399	0.2084	5.99	0.02	0.750			
0.7329	46904.58	3.6370	3.6368	0.1731	5.99	0.02	0.750			
0.7334	46934.56	3.6340	3.6342	0.1362	5.99	0.02	0.750			
0.7337	46958.26	3.6310	3.6313	0.0990	5.99	0.02	0.750			
0.7340	46973.44	3.6280	3.6286	0.0592	5.99	0.02	0.750			
0.7341	46981.14	3.6220	3.6236	-0.0285	5.99	0.02	0.750			
0.7341	46982.45	3.6250	3.6244	0.0149	5.99	0.02	0.750			
