Ah_balance (normalized)	Ah_balance (mAh)	Voltage - fit (V)	Voltage -  interpolate (V)	dQ/dV (1/V)	Temperature (°C)	Temperature - diff (°C)	Current (C)	R_DC 0ms (mOhm)	R_DC 50ms (mOhm)	R_DC 50 ms PEC (mOhm)
0.1793	11477.05	4.0810	4.0810	0.7543	7.55	1.56	0.750			
0.1816	11622.84	4.0780	4.0779	0.7625	7.54	1.55	0.750			
0.1839	11770.42	4.0750	4.0750	0.7683	7.53	1.54	0.750			
0.1862	11918.52	4.0720	4.0720	0.7714	7.53	1.54	0.750			
0.1886	12067.74	4.0690	4.0690	0.7726	7.52	1.53	0.750			
0.1909	12217.00	4.0660	4.0660	0.7772	7.51	1.52	0.750			
0.1932	12365.22	4.0630	4.0630	0.7754	7.50	1.51	0.750			
0.1955	12514.43	4.0600	4.0601	0.7784	7.50	1.51	0.750			
0.1979	12663.49	4.0570	4.0571	0.7815	7.49	1.50	0.750			
0.2002	12814.08	4.0540	4.0540	0.7803	7.48	1.49	0.750			
0.2025	12962.97	4.0510	4.0511	0.7855	7.47	1.48	0.750			
0.2049	13113.93	4.0480	4.0480	0.7900	7.46	1.47	0.750			
0.2073	13264.95	4.0450	4.0447	0.7958	7.45	1.46	0.750			
0.2097	13418.81	4.0420	4.0420	0.8016	7.45	1.46	0.750			
0.2121	13573.32	4.0390	4.0390	0.8063	7.44	1.45	0.750			
0.2145	13730.57	4.0360	4.0360	0.8109	7.44	1.45	0.750			
0.2170	13886.19	4.0330	4.0330	0.8090	7.43	1.44	0.750			
0.2194	14041.79	4.0300	4.0300	0.8163	7.43	1.44	0.750			
0.2219	14199.36	4.0270	4.0270	0.8172	7.43	1.44	0.750			
0.2243	14356.03	4.0240	4.0240	0.8182	7.42	1.43	0.750			
0.2268	14513.59	4.0210	4.0211	0.8236	7.42	1.43	0.750			
0.2292	14671.61	4.0180	4.0181	0.8275	7.41	1.42	0.750			
0.2317	14831.46	4.0150	4.0148	0.8298	7.41	1.42	0.750			
0.2342	14990.93	4.0120	4.0121	0.8303	7.40	1.41	0.750			
0.2367	15149.63	4.0090	4.0090	0.8322	7.40	1.41	0.750			
0.2392	15311.37	4.0060	4.0060	0.8402	7.39	1.40	0.750			
0.2417	15470.28	4.0030	4.0030	0.8426	7.38	1.39	0.750			
0.2443	15633.56	4.0000	3.9998	0.8452	7.37	1.38	0.750			
0.2468	15797.96	3.9970	3.9971	0.8456	7.36	1.37	0.750			
0.2494	15961.26	3.9940	3.9940	0.8440	7.35	1.36	0.750			
0.2519	16123.32	3.9910	3.9910	0.8449	7.35	1.36	0.750			
0.2544	16281.59	3.9880	3.9881	0.8433	7.34	1.35	0.750			
0.2569	16442.95	3.9850	3.9848	0.8549	7.33	1.34	0.750			
0.2595	16608.52	3.9820	3.9820	0.8565	7.33	1.34	0.750			
0.2621	16775.36	3.9790	3.9790	0.8696	7.32	1.33	0.750			
0.2648	16945.57	3.9760	3.9761	0.8785	7.32	1.33	0.750			
0.2674	17113.96	3.9730	3.9731	0.8824	7.31	1.32	0.750			
0.2700	17282.44	3.9700	3.9699	0.8834	7.31	1.32	0.750			
0.2727	17453.18	3.9670	3.9670	0.8836	7.30	1.31	0.750			
0.2753	17621.34	3.9640	3.9640	0.8883	7.29	1.30	0.750			
0.2780	17793.30	3.9610	3.9611	0.8992	7.28	1.29	0.750			
0.2807	17965.72	3.9580	3.9580	0.9052	7.27	1.28	0.750			
0.2835	18140.85	3.9550	3.9550	0.9153	7.27	1.28	0.750			
0.2862	18316.91	3.9520	3.9520	0.9162	7.26	1.27	0.750			
0.2890	18494.88	3.9490	3.9491	0.9224	7.25	1.26	0.750			
0.2918	18673.74	3.9460	3.9460	0.9291	7.24	1.25	0.750			
0.2945	18850.52	3.9430	3.9427	0.9291	7.23	1.24	0.750			
0.2973	19028.38	3.9400	3.9400	0.9316	7.22	1.23	0.750			
0.3001	19207.34	3.9370	3.9370	0.9389	7.21	1.22	0.750			
0.3029	19388.67	3.9340	3.9340	0.9481	7.20	1.21	0.750			
0.3058	19570.54	3.9310	3.9310	0.9533	7.19	1.20	0.750			
0.3087	19756.58	3.9280	3.9280	0.9641	7.19	1.20	0.750			
0.3116	19942.09	3.9250	3.9250	0.9730	7.18	1.19	0.750			
0.3145	20130.79	3.9220	3.9220	0.9812	7.17	1.18	0.750			
0.3175	20319.75	3.9190	3.9191	0.9903	7.16	1.17	0.750			
0.3205	20510.28	3.9160	3.9160	0.9968	7.15	1.16	0.750			
0.3235	20702.66	3.9130	3.9130	1.0029	7.13	1.14	0.750			
0.3265	20895.99	3.9100	3.9099	1.0089	7.12	1.13	0.750			
0.3295	21089.71	3.9070	3.9071	1.0216	7.11	1.12	0.750			
0.3326	21286.85	3.9040	3.9040	1.0282	7.10	1.11	0.750			
0.3357	21485.38	3.9010	3.9009	1.0308	7.09	1.10	0.750			
0.3388	21681.77	3.8980	3.8981	1.0443	7.08	1.09	0.750			
0.3419	21883.86	3.8950	3.8951	1.0581	7.08	1.09	0.750			
0.3452	22090.16	3.8920	3.8917	1.0781	7.07	1.08	0.750			
0.3484	22297.58	3.8890	3.8891	1.0946	7.06	1.07	0.750			
0.3517	22510.06	3.8860	3.8860	1.1062	7.05	1.06	0.750			
0.3551	22728.50	3.8830	3.8834	1.1213	7.04	1.05	0.750			
0.3585	22944.99	3.8800	3.8799	1.1082	7.02	1.03	0.750			
0.3618	23156.19	3.8770	3.8771	1.1270	7.01	1.02	0.750			
0.3652	23370.00	3.8740	3.8741	1.1399	6.99	1.00	0.750			
0.3686	23589.51	3.8710	3.8709	1.1498	6.98	0.99	0.750			
0.3721	23814.06	3.8680	3.8680	1.1726	6.96	0.97	0.750			
0.3757	24042.36	3.8650	3.8651	1.1920	6.95	0.96	0.750			
0.3793	24272.87	3.8620	3.8621	1.2085	6.94	0.95	0.750			
0.3829	24508.38	3.8590	3.8591	1.2132	6.93	0.94	0.750			
0.3866	24741.43	3.8560	3.8561	1.2305	6.92	0.93	0.750			
0.3903	24976.99	3.8530	3.8530	1.2470	6.90	0.91	0.750			
0.3941	25219.22	3.8500	3.8498	1.2707	6.89	0.90	0.750			
0.3979	25465.94	3.8470	3.8470	1.2900	6.87	0.88	0.750			
0.4018	25714.61	3.8440	3.8440	1.3354	6.86	0.87	0.750			
0.4059	25975.43	3.8410	3.8408	1.3685	6.84	0.85	0.750	0.394	0.905	
0.4100	26242.83	3.8380	3.8381	1.4061	6.82	0.83	0.750			
0.4143	26514.76	3.8350	3.8352	1.4298	6.81	0.82	0.750			
0.4187	26796.13	3.8320	3.8319	1.4385	6.79	0.80	0.750			
0.4230	27074.91	3.8290	3.8291	1.4613	6.77	0.78	0.750			
0.4275	27358.51	3.8260	3.8260	1.4941	6.75	0.76	0.750			
0.4320	27645.77	3.8230	3.8230	1.4954	6.73	0.74	0.750			
0.4365	27933.39	3.8200	3.8202	1.5184	6.72	0.73	0.750			
0.4411	28229.69	3.8170	3.8172	1.5542	6.70	0.71	0.750			
0.4458	28529.27	3.8140	3.8137	1.5957	6.69	0.70	0.750			
0.4505	28831.90	3.8110	3.8111	1.6206	6.67	0.68	0.750			
0.4555	29151.53	3.8080	3.8081	1.6683	6.66	0.67	0.750			
0.4606	29480.76	3.8050	3.8052	1.7114	6.63	0.64	0.750			
0.4659	29815.14	3.8020	3.8021	1.7532	6.61	0.62	0.750			
0.4711	30148.72	3.7990	3.7991	1.7848	6.58	0.59	0.750			
0.4765	30493.64	3.7960	3.7958	1.7843	6.56	0.57	0.750			
0.4819	30839.48	3.7930	3.7930	1.7944	6.53	0.54	0.750			
0.4873	31190.02	3.7900	3.7900	1.8007	6.51	0.52	0.750			
0.4928	31538.89	3.7870	3.7870	1.8153	6.50	0.51	0.750			
0.4982	31887.29	3.7840	3.7842	1.8417	6.48	0.49	0.750			
0.5038	32240.62	3.7810	3.7809	1.8841	6.46	0.47	0.750			
0.5095	32606.25	3.7780	3.7782	1.9104	6.44	0.45	0.750			
0.5153	32977.79	3.7750	3.7749	1.9600	6.41	0.42	0.750			
0.5211	33352.95	3.7720	3.7720	1.9712	6.39	0.40	0.750			
0.5270	33728.53	3.7690	3.7692	1.9868	6.37	0.38	0.750			
0.5331	34116.49	3.7660	3.7656	1.9911	6.35	0.36	0.750			
0.5391	34500.16	3.7630	3.7628	2.0035	6.33	0.34	0.750			
0.5449	34873.46	3.7600	3.7597	2.0361	6.31	0.32	0.750			
0.5511	35268.15	3.7570	3.7569	2.0744	6.28	0.29	0.750			
0.5575	35679.04	3.7540	3.7539	2.0813	6.25	0.26	0.750			
0.5638	36083.45	3.7510	3.7508	2.1018	6.23	0.24	0.750			
0.5702	36491.12	3.7480	3.7477	2.1754	6.21	0.22	0.750			
0.5766	36905.32	3.7450	3.7451	2.2381	6.19	0.20	0.750			
0.5838	37362.02	3.7420	3.7420	2.3706	6.16	0.17	0.750			
0.5909	37819.15	3.7390	3.7389	2.3767	6.14	0.15	0.750			
0.5981	38280.65	3.7360	3.7360	2.4153	6.12	0.13	0.750			
0.6054	38745.90	3.7330	3.7329	2.4169	6.10	0.11	0.750			
0.6128	39218.35	3.7300	3.7300	2.4465	6.08	0.09	0.750			
0.6202	39693.67	3.7270	3.7268	2.4538	6.06	0.07	0.750			
0.6279	40184.59	3.7240	3.7238	2.4914	6.04	0.05	0.750			
0.6353	40659.69	3.7210	3.7207	2.4001	6.02	0.03	0.750			
0.6421	41097.19	3.7180	3.7180	2.2245	6.01	0.02	0.750			
0.6487	41514.84	3.7150	3.7149	2.0454	6.00	0.01	0.750			
0.6545	41887.95	3.7120	3.7118	1.8413	5.99	0.00	0.750			
0.6601	42243.74	3.7090	3.7086	1.6874	5.99	-0.00	0.750			
0.6648	42544.13	3.7060	3.7063	1.4727	5.98	-0.01	0.750			
0.6686	42792.49	3.7030	3.7029	1.3011	5.97	-0.02	0.750			
0.6722	43019.11	3.7000	3.6998	1.1632	5.97	-0.02	0.750			
0.6752	43213.01	3.6970	3.6971	1.0497	5.96	-0.03	0.750			
0.6782	43405.03	3.6940	3.6941	1.0050	5.96	-0.03	0.750			
0.6812	43595.12	3.6910	3.6909	0.9647	5.95	-0.04	0.750			
0.6840	43773.62	3.6880	3.6880	0.9233	5.95	-0.04	0.750			
0.6867	43949.12	3.6850	3.6849	0.8812	5.95	-0.04	0.750			
0.6892	44111.87	3.6820	3.6822	0.8532	5.95	-0.04	0.750			
0.6918	44272.37	3.6790	3.6790	0.8225	5.95	-0.04	0.750			
0.6942	44428.35	3.6760	3.6758	0.7969	5.95	-0.04	0.750			
0.6965	44576.47	3.6730	3.6731	0.7616	5.95	-0.04	0.750			
0.6988	44723.96	3.6700	3.6701	0.7383	5.96	-0.03	0.750			
0.7010	44863.39	3.6670	3.6670	0.7003	5.96	-0.03	0.750			
0.7031	44996.60	3.6640	3.6640	0.6684	5.96	-0.03	0.750			
0.7050	45118.15	3.6610	3.6611	0.6235	5.97	-0.02	0.750			
0.7068	45234.16	3.6580	3.6579	0.5881	5.97	-0.02	0.750			
0.7085	45343.15	3.6550	3.6550	0.5505	5.97	-0.02	0.750			
0.7101	45445.42	3.6520	3.6521	0.5154	5.97	-0.02	0.750			
0.7116	45541.97	3.6490	3.6490	0.4818	5.98	-0.01	0.750			
0.7130	45630.53	3.6460	3.6460	0.4445	5.98	-0.01	0.750			
0.7143	45712.47	3.6430	3.6430	0.4094	5.98	-0.01	0.750			
0.7154	45786.81	3.6400	3.6400	0.3776	5.98	-0.01	0.750			
0.7165	45856.06	3.6370	3.6369	0.3441	5.98	-0.01	0.750			
0.7175	45918.93	3.6340	3.6340	0.3125	5.99	-0.00	0.750			
0.7184	45976.01	3.6310	3.6310	0.2784	5.99	-0.00	0.750			
0.7192	46028.46	3.6280	3.6282	0.2429	5.99	-0.00	0.750			
0.7199	46072.01	3.6250	3.6249	0.2051	5.99	0.00	0.750			
0.7204	46108.58	3.6220	3.6219	0.1662	5.99	0.00	0.750			
0.7209	46136.10	3.6190	3.6192	0.1231	5.99	0.00	0.750			
0.7212	46155.07	3.6160	3.6164	0.0810	5.99	0.00	0.750			
0.7214	46167.94	3.6130	3.6134	0.0357	5.99	0.00	0.750			
0.7214	46170.41	3.6100	3.6124	-0.0099	5.99	0.00	0.750			
