Ah_balance (normalized)	Ah_balance (mAh)	Voltage - fit (V)	Voltage -  interpolate (V)	dQ/dV (1/V)	Temperature (°C)	Temperature - diff (°C)	Current (C)	R_DC 0ms (mOhm)	R_DC 50ms (mOhm)	R_DC 50 ms PEC (mOhm)
0.0951	6087.91	4.0050	4.0046	-0.0750	6.00	0.01	-0.750			
0.0954	6105.95	4.0020	4.0018	-0.1077	6.00	0.01	-0.750			
0.0958	6130.02	3.9990	3.9989	-0.1359	6.00	0.01	-0.750			
0.0962	6158.73	3.9960	3.9960	-0.1623	6.00	0.01	-0.750			
0.0968	6192.72	3.9930	3.9930	-0.1874	6.00	0.01	-0.750			
0.0974	6231.20	3.9900	3.9901	-0.2121	6.00	0.01	-0.750			
0.0980	6274.69	3.9870	3.9870	-0.2386	6.00	0.01	-0.750			
0.0988	6322.42	3.9840	3.9840	-0.2637	6.00	0.01	-0.750			
0.0996	6375.86	3.9810	3.9809	-0.2884	6.00	0.01	-0.750			
0.1005	6433.48	3.9780	3.9780	-0.3142	6.00	0.01	-0.750			
0.1015	6496.28	3.9750	3.9750	-0.3401	5.99	0.00	-0.750			
0.1026	6563.94	3.9720	3.9720	-0.3661	5.99	0.00	-0.750			
0.1037	6637.48	3.9690	3.9688	-0.3896	5.99	0.00	-0.750			
0.1049	6714.31	3.9660	3.9660	-0.4136	5.99	-0.00	-0.750			
0.1062	6795.80	3.9630	3.9631	-0.4389	5.99	-0.00	-0.750			
0.1075	6882.34	3.9600	3.9601	-0.4657	5.98	-0.01	-0.750			
0.1090	6974.59	3.9570	3.9569	-0.4876	5.98	-0.01	-0.750			
0.1105	7071.24	3.9540	3.9539	-0.5078	5.98	-0.01	-0.750			
0.1120	7170.95	3.9510	3.9511	-0.5336	5.98	-0.01	-0.750			
0.1137	7276.13	3.9480	3.9481	-0.5557	5.97	-0.02	-0.750			
0.1154	7385.07	3.9450	3.9448	-0.5756	5.97	-0.02	-0.750			
0.1172	7497.88	3.9420	3.9421	-0.5922	5.97	-0.02	-0.750			
0.1190	7613.58	3.9390	3.9390	-0.6062	5.97	-0.02	-0.750			
0.1208	7732.26	3.9360	3.9360	-0.6224	5.97	-0.02	-0.750			
0.1227	7853.30	3.9330	3.9330	-0.6397	5.97	-0.02	-0.750			
0.1246	7976.85	3.9300	3.9300	-0.6525	5.97	-0.02	-0.750			
0.1266	8105.45	3.9270	3.9269	-0.6586	5.97	-0.02	-0.750			
0.1286	8233.29	3.9240	3.9241	-0.6699	5.97	-0.02	-0.750			
0.1307	8362.84	3.9210	3.9210	-0.6808	5.97	-0.02	-0.750			
0.1327	8494.63	3.9180	3.9180	-0.6901	5.98	-0.01	-0.750			
0.1348	8626.70	3.9150	3.9148	-0.7009	5.98	-0.01	-0.750			
0.1369	8760.98	3.9120	3.9121	-0.7089	5.98	-0.01	-0.750			
0.1391	8901.24	3.9090	3.9089	-0.7183	5.99	-0.00	-0.750			
0.1413	9040.85	3.9060	3.9062	-0.7264	5.99	-0.00	-0.750			
0.1434	9180.72	3.9030	3.9029	-0.7273	5.99	0.00	-0.750			
0.1456	9320.81	3.9000	3.8999	-0.7291	6.00	0.01	-0.750			
0.1478	9461.74	3.8970	3.8970	-0.7278	6.00	0.01	-0.750			
0.1500	9601.08	3.8940	3.8941	-0.7231	6.00	0.01	-0.750			
0.1522	9741.55	3.8910	3.8910	-0.7252	6.01	0.02	-0.750			
0.1544	9879.73	3.8880	3.8882	-0.7268	6.01	0.02	-0.750			
0.1565	10016.86	3.8850	3.8848	-0.7261	6.02	0.03	-0.750			
0.1587	10155.89	3.8820	3.8820	-0.7346	6.02	0.03	-0.750			
0.1609	10296.32	3.8790	3.8791	-0.7427	6.03	0.04	-0.750			
0.1632	10442.24	3.8760	3.8760	-0.7596	6.03	0.04	-0.750			
0.1655	10589.31	3.8730	3.8729	-0.7629	6.04	0.05	-0.750			
0.1678	10736.82	3.8700	3.8699	-0.7649	6.04	0.05	-0.750			
0.1701	10884.11	3.8670	3.8671	-0.7678	6.05	0.06	-0.750			
0.1724	11032.17	3.8640	3.8640	-0.7703	6.05	0.06	-0.750			
0.1747	11179.52	3.8610	3.8610	-0.7698	6.06	0.07	-0.750			
0.1770	11327.83	3.8580	3.8579	-0.7718	6.06	0.07	-0.750			
0.1793	11475.86	3.8550	3.8552	-0.7719	6.07	0.08	-0.750			
0.1816	11625.06	3.8520	3.8521	-0.7737	6.07	0.08	-0.750			
0.1840	11774.32	3.8490	3.8490	-0.7772	6.08	0.09	-0.750			
0.1863	11922.47	3.8460	3.8460	-0.7767	6.08	0.09	-0.750			
0.1886	12071.15	3.8430	3.8429	-0.7746	6.08	0.09	-0.750			
0.1909	12219.50	3.8400	3.8400	-0.7776	6.09	0.10	-0.750			
0.1933	12369.12	3.8370	3.8370	-0.7805	6.09	0.10	-0.750			
0.1956	12519.29	3.8340	3.8339	-0.7818	6.10	0.11	-0.750			
0.1980	12670.84	3.8310	3.8310	-0.7791	6.10	0.11	-0.750			
0.2003	12819.38	3.8280	3.8281	-0.7783	6.11	0.12	-0.750			
0.2027	12969.74	3.8250	3.8250	-0.7783	6.12	0.13	-0.750			
0.2050	13119.47	3.8220	3.8219	-0.7803	6.12	0.13	-0.750			
0.2073	13266.29	3.8190	3.8190	-0.7794	6.12	0.13	-0.750			
0.2096	13416.96	3.8160	3.8160	-0.7854	6.13	0.14	-0.750			
0.2120	13569.51	3.8130	3.8130	-0.7892	6.13	0.14	-0.750			
0.2144	13723.12	3.8100	3.8099	-0.7905	6.14	0.15	-0.750			
0.2168	13873.99	3.8070	3.8071	-0.7867	6.14	0.15	-0.750			
0.2191	14024.98	3.8040	3.8040	-0.7869	6.15	0.16	-0.750			
0.2215	14175.43	3.8010	3.8010	-0.7846	6.15	0.16	-0.750			
0.2238	14324.55	3.7980	3.7979	-0.7818	6.16	0.17	-0.750			
0.2262	14475.82	3.7950	3.7950	-0.7817	6.16	0.17	-0.750			
0.2285	14624.86	3.7920	3.7920	-0.7820	6.17	0.18	-0.750			
0.2309	14774.72	3.7890	3.7890	-0.7858	6.18	0.19	-0.750			
0.2332	14925.75	3.7860	3.7859	-0.7852	6.18	0.19	-0.750			
0.2355	15074.48	3.7830	3.7830	-0.7879	6.19	0.20	-0.750			
0.2379	15226.59	3.7800	3.7800	-0.7959	6.20	0.21	-0.750			
0.2403	15382.37	3.7770	3.7771	-0.7976	6.21	0.22	-0.750			
0.2428	15536.51	3.7740	3.7740	-0.7999	6.21	0.22	-0.750			
0.2451	15689.08	3.7710	3.7711	-0.7987	6.22	0.23	-0.750			
0.2475	15842.83	3.7680	3.7680	-0.8003	6.22	0.23	-0.750			
0.2499	15996.12	3.7650	3.7649	-0.7973	6.22	0.23	-0.750			
0.2523	16148.11	3.7620	3.7619	-0.7919	6.23	0.24	-0.750			
0.2547	16298.83	3.7590	3.7592	-0.7963	6.23	0.24	-0.750			
0.2571	16452.89	3.7560	3.7559	-0.8004	6.23	0.24	-0.750			
0.2595	16606.17	3.7530	3.7530	-0.8054	6.24	0.25	-0.750			
0.2619	16762.74	3.7500	3.7499	-0.8064	6.24	0.25	-0.750			
0.2644	16918.48	3.7470	3.7470	-0.8086	6.25	0.26	-0.750			
0.2668	17074.21	3.7440	3.7443	-0.8141	6.25	0.26	-0.750			
0.2692	17230.78	3.7410	3.7409	-0.8122	6.26	0.27	-0.750			
0.2716	17384.89	3.7380	3.7379	-0.8140	6.27	0.28	-0.750			
0.2741	17540.64	3.7350	3.7350	-0.8150	6.27	0.28	-0.750			
0.2765	17698.36	3.7320	3.7321	-0.8230	6.28	0.29	-0.750			
0.2790	17856.84	3.7290	3.7291	-0.8248	6.29	0.30	-0.750			
0.2815	18014.85	3.7260	3.7260	-0.8299	6.29	0.30	-0.750			
0.2840	18174.09	3.7230	3.7230	-0.8388	6.30	0.31	-0.750			
0.2865	18338.05	3.7200	3.7199	-0.8440	6.30	0.31	-0.750			
0.2891	18499.57	3.7170	3.7170	-0.8471	6.31	0.32	-0.750			
0.2916	18664.12	3.7140	3.7143	-0.8538	6.31	0.32	-0.750			
0.2942	18827.30	3.7110	3.7110	-0.8581	6.31	0.32	-0.750			
0.2967	18991.84	3.7080	3.7079	-0.8655	6.32	0.33	-0.750			
0.2993	19157.25	3.7050	3.7050	-0.8731	6.32	0.33	-0.750			
0.3020	19326.81	3.7020	3.7020	-0.8862	6.33	0.34	-0.750			
0.3047	19498.10	3.6990	3.6991	-0.8934	6.33	0.34	-0.750			
0.3074	19670.56	3.6960	3.6960	-0.9009	6.33	0.34	-0.750			
0.3101	19844.32	3.6930	3.6930	-0.9067	6.34	0.35	-0.750			
0.3128	20017.77	3.6900	3.6900	-0.9095	6.34	0.35	-0.750			
0.3155	20193.52	3.6870	3.6870	-0.9192	6.35	0.36	-0.750			
0.3183	20370.05	3.6840	3.6838	-0.9264	6.35	0.36	-0.750			
0.3211	20548.90	3.6810	3.6811	-0.9435	6.36	0.37	-0.750			
0.3239	20732.10	3.6780	3.6780	-0.9555	6.36	0.37	-0.750			
0.3268	20917.62	3.6750	3.6749	-0.9651	6.37	0.38	-0.750			
0.3298	21105.17	3.6720	3.6722	-0.9719	6.37	0.38	-0.750			
0.3327	21292.36	3.6690	3.6691	-0.9827	6.37	0.38	-0.750			
0.3356	21480.20	3.6660	3.6660	-0.9908	6.37	0.38	-0.750			
0.3386	21670.02	3.6630	3.6629	-0.9966	6.37	0.38	-0.750			
0.3416	21862.67	3.6600	3.6602	-1.0123	6.37	0.38	-0.750			
0.3446	22057.43	3.6570	3.6570	-1.0217	6.37	0.38	-0.750			
0.3477	22255.54	3.6540	3.6541	-1.0385	6.38	0.39	-0.750			
0.3509	22456.99	3.6510	3.6509	-1.0444	6.38	0.39	-0.750			
0.3540	22657.94	3.6480	3.6480	-1.0592	6.39	0.40	-0.750			
0.3572	22862.98	3.6450	3.6450	-1.0742	6.39	0.40	-0.750			
0.3605	23072.44	3.6420	3.6419	-1.0843	6.39	0.40	-0.750			
0.3638	23280.88	3.6390	3.6389	-1.0914	6.39	0.40	-0.750			
0.3670	23489.68	3.6360	3.6363	-1.1072	6.39	0.40	-0.750			
0.3704	23703.58	3.6330	3.6330	-1.1147	6.40	0.41	-0.750			
0.3737	23919.38	3.6300	3.6299	-1.1288	6.40	0.41	-0.750			
0.3771	24134.70	3.6270	3.6270	-1.1346	6.41	0.42	-0.750			
0.3806	24358.23	3.6240	3.6239	-1.1565	6.41	0.42	-0.750			
0.3841	24580.50	3.6210	3.6210	-1.1609	6.41	0.42	-0.750			
0.3876	24803.57	3.6180	3.6180	-1.1702	6.41	0.42	-0.750			
0.3910	25026.36	3.6150	3.6151	-1.1866	6.41	0.42	-0.750			
0.3947	25258.37	3.6120	3.6119	-1.2030	6.41	0.42	-0.750			
0.3982	25487.86	3.6090	3.6090	-1.2141	6.41	0.42	-0.750			
0.4019	25720.68	3.6060	3.6060	-1.2417	6.41	0.42	-0.750			
0.4057	25963.32	3.6030	3.6031	-1.2596	6.41	0.42	-0.750			
0.4096	26212.36	3.6000	3.5998	-1.2693	6.41	0.42	-0.750			
0.4134	26456.51	3.5970	3.5969	-1.2755	6.42	0.43	-0.750			
0.4172	26701.04	3.5940	3.5941	-1.2840	6.42	0.43	-0.750	0.469	1.085	
0.4211	26950.18	3.5910	3.5909	-1.2974	6.42	0.43	-0.750			
0.4250	27196.93	3.5880	3.5879	-1.3030	6.43	0.44	-0.750			
0.4288	27444.84	3.5850	3.5851	-1.3223	6.43	0.44	-0.750			
0.4329	27706.74	3.5820	3.5820	-1.3546	6.43	0.44	-0.750			
0.4370	27969.82	3.5790	3.5789	-1.3628	6.43	0.44	-0.750			
0.4411	28232.25	3.5760	3.5762	-1.3812	6.43	0.44	-0.750			
0.4453	28499.83	3.5730	3.5729	-1.3896	6.43	0.44	-0.750			
0.4495	28768.23	3.5700	3.5699	-1.4022	6.43	0.44	-0.750			
0.4537	29037.59	3.5670	3.5672	-1.4155	6.43	0.44	-0.750			
0.4579	29306.96	3.5640	3.5640	-1.4309	6.43	0.44	-0.750			
0.4623	29588.06	3.5610	3.5609	-1.4516	6.43	0.44	-0.750			
0.4667	29871.57	3.5580	3.5580	-1.4713	6.43	0.44	-0.750			
0.4711	30153.24	3.5550	3.5551	-1.4869	6.43	0.44	-0.750			
0.4757	30445.12	3.5520	3.5519	-1.5102	6.43	0.44	-0.750			
0.4802	30732.55	3.5490	3.5492	-1.5249	6.43	0.44	-0.750			
0.4848	31028.61	3.5460	3.5458	-1.5325	6.43	0.44	-0.750			
0.4894	31322.48	3.5430	3.5430	-1.5411	6.44	0.45	-0.750			
0.4941	31621.56	3.5400	3.5400	-1.5466	6.44	0.45	-0.750			
0.4988	31924.86	3.5370	3.5371	-1.5765	6.45	0.46	-0.750			
0.5035	32224.47	3.5340	3.5341	-1.5837	6.45	0.46	-0.750			
0.5083	32530.90	3.5310	3.5309	-1.5904	6.45	0.46	-0.750			
0.5131	32839.45	3.5280	3.5282	-1.6029	6.45	0.46	-0.750			
0.5179	33148.68	3.5250	3.5250	-1.6328	6.45	0.46	-0.750			
0.5228	33462.01	3.5220	3.5219	-1.6401	6.46	0.47	-0.750			
0.5278	33777.19	3.5190	3.5191	-1.6513	6.47	0.48	-0.750			
0.5328	34097.76	3.5160	3.5159	-1.6521	6.47	0.48	-0.750			
0.5377	34413.74	3.5130	3.5129	-1.6545	6.47	0.48	-0.750			
0.5427	34732.07	3.5100	3.5100	-1.6543	6.47	0.48	-0.750			
0.5476	35047.37	3.5070	3.5067	-1.6532	6.47	0.48	-0.750			
0.5526	35364.30	3.5040	3.5039	-1.6450	6.47	0.48	-0.750			
0.5575	35682.19	3.5010	3.5009	-1.6564	6.48	0.49	-0.750			
0.5625	36002.11	3.4980	3.4977	-1.6423	6.48	0.49	-0.750			
0.5674	36315.43	3.4950	3.4950	-1.6315	6.49	0.50	-0.750			
0.5724	36630.41	3.4920	3.4922	-1.6306	6.50	0.51	-0.750			
0.5772	36941.20	3.4890	3.4890	-1.6140	6.52	0.53	-0.750			
0.5820	37248.27	3.4860	3.4859	-1.6080	6.53	0.54	-0.750			
0.5869	37560.91	3.4830	3.4830	-1.6181	6.54	0.55	-0.750			
0.5918	37874.62	3.4800	3.4800	-1.6164	6.55	0.56	-0.750			
0.5966	38185.47	3.4770	3.4771	-1.5949	6.55	0.56	-0.750			
0.6014	38490.38	3.4740	3.4739	-1.5699	6.55	0.56	-0.750			
0.6061	38789.93	3.4710	3.4708	-1.5604	6.55	0.56	-0.750			
0.6107	39082.87	3.4680	3.4681	-1.5379	6.56	0.57	-0.750			
0.6152	39374.03	3.4650	3.4648	-1.5223	6.57	0.58	-0.750			
0.6198	39668.25	3.4620	3.4619	-1.5164	6.58	0.59	-0.750			
0.6244	39964.38	3.4590	3.4589	-1.5055	6.59	0.60	-0.750			
0.6290	40254.84	3.4560	3.4561	-1.4912	6.61	0.62	-0.750			
0.6334	40537.97	3.4530	3.4531	-1.4533	6.62	0.63	-0.750			
0.6377	40814.98	3.4500	3.4498	-1.4177	6.64	0.65	-0.750			
0.6420	41085.40	3.4470	3.4472	-1.3966	6.65	0.66	-0.750			
0.6460	41346.35	3.4440	3.4439	-1.3687	6.66	0.67	-0.750			
0.6501	41603.90	3.4410	3.4410	-1.3451	6.68	0.69	-0.750			
0.6541	41863.80	3.4380	3.4382	-1.3369	6.69	0.70	-0.750			
0.6582	42122.71	3.4350	3.4349	-1.3176	6.70	0.71	-0.750			
0.6621	42374.84	3.4320	3.4319	-1.2878	6.72	0.73	-0.750			
0.6659	42620.33	3.4290	3.4293	-1.2551	6.73	0.74	-0.750			
0.6697	42857.99	3.4260	3.4259	-1.2338	6.74	0.75	-0.750			
0.6733	43089.83	3.4230	3.4229	-1.1995	6.75	0.76	-0.750			
0.6768	43316.29	3.4200	3.4199	-1.1605	6.76	0.77	-0.750			
0.6802	43534.51	3.4170	3.4172	-1.1361	6.77	0.78	-0.750			
0.6837	43755.51	3.4140	3.4140	-1.1148	6.79	0.80	-0.750			
0.6870	43965.08	3.4110	3.4109	-1.0847	6.81	0.82	-0.750			
0.6901	44167.36	3.4080	3.4080	-1.0497	6.82	0.83	-0.750			
0.6933	44368.97	3.4050	3.4049	-1.0316	6.84	0.85	-0.750			
0.6964	44566.79	3.4020	3.4020	-1.0108	6.84	0.85	-0.750			
0.6994	44759.86	3.3990	3.3989	-0.9853	6.85	0.86	-0.750			
0.7022	44943.38	3.3960	3.3960	-0.9599	6.86	0.87	-0.750			
0.7051	45126.41	3.3930	3.3931	-0.9434	6.87	0.88	-0.750			
0.7079	45304.26	3.3900	3.3898	-0.9203	6.89	0.90	-0.750			
0.7106	45479.86	3.3870	3.3869	-0.8995	6.90	0.91	-0.750			
0.7133	45650.15	3.3840	3.3840	-0.8710	6.91	0.92	-0.750			
0.7159	45818.06	3.3810	3.3810	-0.8537	6.93	0.94	-0.750			
0.7184	45979.93	3.3780	3.3779	-0.8260	6.94	0.95	-0.750			
0.7208	46134.11	3.3750	3.3750	-0.7963	6.95	0.96	-0.750			
0.7232	46282.59	3.3720	3.3720	-0.7710	6.96	0.97	-0.750			
0.7254	46428.55	3.3690	3.3690	-0.7502	6.97	0.98	-0.750			
0.7277	46571.38	3.3660	3.3660	-0.7301	6.98	0.99	-0.750			
0.7298	46709.61	3.3630	3.3631	-0.7081	6.99	1.00	-0.750			
0.7319	46844.13	3.3600	3.3600	-0.6964	7.00	1.01	-0.750			
