Ah_balance (normalized)	Ah_balance (mAh)	Voltage - fit (V)	Voltage -  interpolate (V)	dQ/dV (1/V)	Temperature (°C)	Temperature - diff (°C)	Current (C)	R_DC 0ms (mOhm)	R_DC 50ms (mOhm)	R_DC 50 ms PEC (mOhm)
0.1793	11475.09	4.0810	4.0811	0.7196	7.23	1.26	0.750			
0.1815	11618.10	4.0780	4.0779	0.7644	7.23	1.26	0.750			
0.1839	11767.98	4.0750	4.0750	0.7833	7.23	1.26	0.750			
0.1863	11921.77	4.0720	4.0721	0.7897	7.22	1.25	0.750			
0.1887	12075.32	4.0690	4.0690	0.7972	7.22	1.25	0.750			
0.1911	12229.16	4.0660	4.0660	0.7973	7.22	1.25	0.750			
0.1934	12379.92	4.0630	4.0631	0.7944	7.21	1.24	0.750			
0.1958	12532.63	4.0600	4.0600	0.7955	7.21	1.24	0.750			
0.1982	12686.13	4.0570	4.0570	0.7973	7.20	1.23	0.750			
0.2006	12839.24	4.0540	4.0541	0.7987	7.20	1.23	0.750			
0.2030	12994.07	4.0510	4.0509	0.8042	7.20	1.23	0.750			
0.2054	13146.00	4.0480	4.0481	0.8065	7.19	1.22	0.750			
0.2078	13300.17	4.0450	4.0450	0.8132	7.19	1.22	0.750			
0.2103	13459.62	4.0420	4.0419	0.8099	7.18	1.21	0.750			
0.2127	13615.93	4.0390	4.0389	0.8158	7.18	1.21	0.750			
0.2152	13771.76	4.0360	4.0362	0.8202	7.18	1.21	0.750			
0.2176	13929.14	4.0330	4.0332	0.8250	7.17	1.20	0.750			
0.2201	14087.73	4.0300	4.0299	0.8284	7.17	1.20	0.750			
0.2226	14247.53	4.0270	4.0270	0.8303	7.17	1.20	0.750			
0.2251	14407.13	4.0240	4.0240	0.8342	7.16	1.19	0.750			
0.2276	14569.51	4.0210	4.0211	0.8407	7.16	1.19	0.750			
0.2302	14730.95	4.0180	4.0180	0.8409	7.15	1.18	0.750			
0.2327	14892.84	4.0150	4.0150	0.8401	7.15	1.18	0.750			
0.2353	15056.31	4.0120	4.0119	0.8366	7.14	1.17	0.750			
0.2378	15216.44	4.0090	4.0091	0.8369	7.14	1.17	0.750			
0.2402	15375.08	4.0060	4.0060	0.8429	7.13	1.16	0.750			
0.2428	15536.31	4.0030	4.0031	0.8443	7.12	1.15	0.750			
0.2453	15697.95	4.0000	3.9999	0.8458	7.12	1.15	0.750			
0.2478	15862.24	3.9970	3.9971	0.8443	7.12	1.15	0.750			
0.2503	16020.83	3.9940	3.9942	0.8893	7.12	1.15	0.750			
0.2530	16194.95	3.9910	3.9909	0.9176	7.11	1.14	0.750			
0.2559	16375.89	3.9880	3.9876	0.9333	7.11	1.14	0.750			
0.2588	16561.38	3.9850	3.9854	0.9340	7.11	1.14	0.750			
0.2617	16746.42	3.9820	3.9823	0.9366	7.10	1.13	0.750			
0.2646	16932.21	3.9790	3.9790	0.9323	7.09	1.12	0.750			
0.2673	17108.12	3.9760	3.9758	0.9097	7.09	1.12	0.750			
0.2698	17269.96	3.9730	3.9730	0.8820	7.08	1.11	0.750			
0.2725	17439.75	3.9700	3.9700	0.8829	7.07	1.10	0.750			
0.2752	17610.09	3.9670	3.9670	0.8907	7.07	1.10	0.750			
0.2778	17780.38	3.9640	3.9640	0.8961	7.06	1.09	0.750			
0.2805	17952.97	3.9610	3.9610	0.8984	7.05	1.08	0.750			
0.2832	18126.03	3.9580	3.9580	0.9046	7.05	1.08	0.750			
0.2860	18300.95	3.9550	3.9550	0.9047	7.04	1.07	0.750			
0.2887	18473.83	3.9520	3.9521	0.9097	7.03	1.06	0.750			
0.2914	18649.05	3.9490	3.9490	0.9147	7.02	1.05	0.750			
0.2941	18823.31	3.9460	3.9459	0.9195	7.01	1.04	0.750			
0.2969	18999.65	3.9430	3.9431	0.9267	7.00	1.03	0.750			
0.2997	19179.76	3.9400	3.9401	0.9388	7.00	1.03	0.750			
0.3025	19361.88	3.9370	3.9370	0.9474	6.99	1.02	0.750			
0.3054	19544.82	3.9340	3.9340	0.9509	6.98	1.01	0.750			
0.3083	19729.82	3.9310	3.9310	0.9556	6.98	1.01	0.750			
0.3111	19913.43	3.9280	3.9280	0.9646	6.97	1.00	0.750			
0.3140	20098.95	3.9250	3.9250	0.9682	6.96	0.99	0.750			
0.3169	20284.29	3.9220	3.9220	0.9769	6.95	0.98	0.750			
0.3199	20472.80	3.9190	3.9189	0.9842	6.94	0.97	0.750			
0.3229	20662.54	3.9160	3.9160	0.9913	6.93	0.96	0.750			
0.3258	20852.93	3.9130	3.9131	1.0015	6.93	0.96	0.750			
0.3288	21044.79	3.9100	3.9100	1.0175	6.92	0.95	0.750			
0.3319	21241.46	3.9070	3.9068	1.0254	6.91	0.94	0.750			
0.3350	21441.73	3.9040	3.9040	1.0333	6.90	0.93	0.750			
0.3381	21640.70	3.9010	3.9011	1.0388	6.89	0.92	0.750			
0.3413	21842.20	3.8980	3.8981	1.0518	6.88	0.91	0.750			
0.3444	22044.27	3.8950	3.8948	1.0596	6.87	0.90	0.750			
0.3476	22245.34	3.8920	3.8920	1.0605	6.86	0.89	0.750			
0.3507	22447.75	3.8890	3.8891	1.0760	6.85	0.88	0.750			
0.3540	22657.11	3.8860	3.8861	1.0956	6.84	0.87	0.750			
0.3573	22870.30	3.8830	3.8827	1.1068	6.83	0.86	0.750			
0.3607	23082.33	3.8800	3.8800	1.1234	6.82	0.85	0.750			
0.3640	23298.47	3.8770	3.8771	1.1435	6.81	0.84	0.750			
0.3675	23521.10	3.8740	3.8740	1.1655	6.80	0.83	0.750			
0.3710	23746.45	3.8710	3.8710	1.1721	6.79	0.82	0.750			
0.3746	23973.26	3.8680	3.8680	1.1873	6.77	0.80	0.750			
0.3782	24204.54	3.8650	3.8651	1.2057	6.76	0.79	0.750			
0.3819	24440.62	3.8620	3.8617	1.2136	6.75	0.78	0.750			
0.3855	24674.86	3.8590	3.8590	1.2113	6.74	0.77	0.750			
0.3892	24906.63	3.8560	3.8561	1.2146	6.73	0.76	0.750			
0.3928	25140.80	3.8530	3.8530	1.2208	6.72	0.75	0.750			
0.3965	25373.80	3.8500	3.8499	1.2388	6.70	0.73	0.750			
0.4001	25606.04	3.8470	3.8470	1.2515	6.69	0.72	0.750			
0.4038	25841.87	3.8440	3.8442	1.3115	6.68	0.71	0.750			
0.4078	26096.58	3.8410	3.8408	1.3600	6.67	0.70	0.750			
0.4120	26368.13	3.8380	3.8376	1.4224	6.66	0.69	0.750			
0.4164	26650.60	3.8350	3.8353	1.4498	6.65	0.68	0.750	0.413	0.953	
0.4209	26937.42	3.8320	3.8318	1.4741	6.64	0.67	0.750			
0.4254	27226.33	3.8290	3.8291	1.5172	6.62	0.65	0.750			
0.4299	27516.42	3.8260	3.8260	1.4973	6.61	0.64	0.750			
0.4345	27807.48	3.8230	3.8230	1.5148	6.59	0.62	0.750			
0.4390	28095.95	3.8200	3.8202	1.5448	6.58	0.61	0.750			
0.4437	28395.59	3.8170	3.8168	1.5911	6.56	0.59	0.750			
0.4486	28707.21	3.8140	3.8137	1.5953	6.54	0.57	0.750			
0.4533	29009.33	3.8110	3.8111	1.6406	6.53	0.56	0.750			
0.4584	29334.67	3.8080	3.8077	1.6894	6.51	0.54	0.750			
0.4635	29664.93	3.8050	3.8044	1.7504	6.49	0.52	0.750			
0.4688	30002.37	3.8020	3.8021	1.7902	6.47	0.50	0.750			
0.4743	30352.77	3.7990	3.7990	1.8321	6.46	0.49	0.750			
0.4799	30711.54	3.7960	3.7960	1.8382	6.44	0.47	0.750			
0.4853	31058.39	3.7930	3.7930	1.8714	6.42	0.45	0.750			
0.4910	31421.16	3.7900	3.7898	1.9100	6.40	0.43	0.750			
0.4968	31794.81	3.7870	3.7872	1.9611	6.38	0.41	0.750			
0.5027	32175.73	3.7840	3.7841	1.9516	6.36	0.39	0.750			
0.5088	32565.69	3.7810	3.7808	2.0012	6.34	0.37	0.750			
0.5146	32935.63	3.7780	3.7781	2.0016	6.33	0.36	0.750			
0.5207	33322.68	3.7750	3.7751	2.0475	6.31	0.34	0.750			
0.5269	33722.70	3.7720	3.7720	2.1538	6.29	0.32	0.750			
0.5335	34144.96	3.7690	3.7689	2.1936	6.27	0.30	0.750			
0.5403	34577.09	3.7660	3.7661	2.1857	6.24	0.27	0.750			
0.5468	34993.54	3.7630	3.7630	2.1619	6.22	0.25	0.750			
0.5531	35397.85	3.7600	3.7601	2.1523	6.20	0.23	0.750			
0.5596	35813.92	3.7570	3.7570	2.1804	6.18	0.21	0.750			
0.5663	36242.78	3.7540	3.7539	2.2372	6.16	0.19	0.750			
0.5730	36672.53	3.7510	3.7510	2.2754	6.14	0.17	0.750			
0.5798	37107.03	3.7480	3.7481	2.3050	6.12	0.15	0.750			
0.5868	37554.86	3.7450	3.7450	2.3694	6.09	0.12	0.750			
0.5941	38020.45	3.7420	3.7419	2.4281	6.07	0.10	0.750			
0.6015	38496.00	3.7390	3.7389	2.5015	6.05	0.08	0.750			
0.6090	38975.67	3.7360	3.7360	2.6318	6.02	0.05	0.750			
0.6173	39507.68	3.7330	3.7328	2.6618	6.00	0.03	0.750			
0.6257	40042.15	3.7300	3.7300	2.7294	5.99	0.02	0.750			
0.6336	40551.45	3.7270	3.7268	2.7441	5.98	0.01	0.750			
0.6417	41071.95	3.7240	3.7239	2.7893	5.96	-0.01	0.750			
0.6502	41611.02	3.7210	3.7210	2.7456	5.95	-0.02	0.750			
0.6588	42161.36	3.7180	3.7179	2.7003	5.94	-0.03	0.750			
0.6667	42668.66	3.7150	3.7150	2.4642	5.93	-0.04	0.750			
0.6736	43108.05	3.7120	3.7116	2.2551	5.92	-0.05	0.750			
0.6800	43521.99	3.7090	3.7086	2.0024	5.91	-0.06	0.750			
0.6858	43891.07	3.7060	3.7064	1.7711	5.92	-0.05	0.750			
0.6907	44207.40	3.7030	3.7031	1.5618	5.92	-0.05	0.750			
0.6951	44483.34	3.7000	3.7000	1.3644	5.93	-0.04	0.750			
0.6986	44712.44	3.6970	3.6970	1.1890	5.93	-0.04	0.750			
0.7019	44918.86	3.6940	3.6940	1.0706	5.93	-0.04	0.750			
0.7048	45109.52	3.6910	3.6910	0.9958	5.93	-0.04	0.750			
0.7077	45291.09	3.6880	3.6878	0.9247	5.93	-0.04	0.750			
0.7103	45462.38	3.6850	3.6850	0.8706	5.94	-0.03	0.750			
0.7129	45624.20	3.6820	3.6822	0.8224	5.94	-0.03	0.750			
0.7153	45778.93	3.6790	3.6789	0.7828	5.94	-0.03	0.750			
0.7176	45923.22	3.6760	3.6759	0.7314	5.95	-0.02	0.750			
0.7197	46058.99	3.6730	3.6729	0.6812	5.95	-0.02	0.750			
0.7216	46184.38	3.6700	3.6701	0.6334	5.95	-0.02	0.750			
0.7235	46305.95	3.6670	3.6671	0.5941	5.96	-0.01	0.750			
0.7252	46414.59	3.6640	3.6639	0.5433	5.96	-0.01	0.750			
0.7268	46513.02	3.6610	3.6609	0.4942	5.96	-0.01	0.750			
0.7282	46602.35	3.6580	3.6581	0.4500	5.96	-0.01	0.750			
0.7294	46684.13	3.6550	3.6550	0.4105	5.97	-0.00	0.750			
0.7306	46758.10	3.6520	3.6520	0.3748	5.97	-0.00	0.750			
0.7316	46825.51	3.6490	3.6489	0.3364	5.97	-0.00	0.750			
0.7326	46887.62	3.6460	3.6460	0.2992	5.97	0.00	0.750			
0.7335	46942.47	3.6430	3.6429	0.2645	5.97	0.00	0.750			
0.7342	46990.20	3.6400	3.6403	0.2258	5.97	0.00	0.750			
0.7349	47031.28	3.6370	3.6369	0.1882	5.97	0.00	0.750			
0.7354	47062.57	3.6340	3.6336	0.1449	5.98	0.01	0.750			
0.7357	47086.11	3.6310	3.6311	0.1035	5.98	0.01	0.750			
0.7359	47099.57	3.6280	3.6291	0.0703	5.98	0.01	0.750			
0.7361	47110.06	3.6250	3.6270	0.0353	5.98	0.01	0.750			
