Ah_balance (normalized)	Ah_balance (mAh)	Voltage - fit (V)	Voltage -  interpolate (V)	dQ/dV (1/V)	Temperature (°C)	Temperature - diff (°C)	Current (C)	R_DC 0ms (mOhm)	R_DC 50ms (mOhm)	R_DC 50 ms PEC (mOhm)
0.1766	11302.87	4.0830	4.0830	0.7599	7.39	1.42	0.750			
0.1789	11449.58	4.0800	4.0798	0.7711	7.38	1.41	0.750			
0.1813	11602.67	4.0770	4.0769	0.7843	7.37	1.40	0.750			
0.1837	11753.87	4.0740	4.0740	0.7798	7.37	1.40	0.750			
0.1860	11901.92	4.0710	4.0711	0.7831	7.36	1.39	0.750			
0.1883	12052.36	4.0680	4.0680	0.7870	7.36	1.39	0.750			
0.1907	12202.56	4.0650	4.0649	0.7880	7.35	1.38	0.750			
0.1930	12353.51	4.0620	4.0620	0.7910	7.35	1.38	0.750			
0.1954	12506.69	4.0590	4.0591	0.7920	7.34	1.37	0.750			
0.1978	12660.92	4.0560	4.0560	0.7976	7.33	1.36	0.750			
0.2002	12814.95	4.0530	4.0530	0.7999	7.33	1.36	0.750			
0.2026	12966.03	4.0500	4.0502	0.8013	7.32	1.35	0.750			
0.2050	13119.52	4.0470	4.0469	0.8029	7.32	1.35	0.750			
0.2074	13275.89	4.0440	4.0440	0.7998	7.31	1.34	0.750			
0.2098	13428.18	4.0410	4.0410	0.8040	7.31	1.34	0.750			
0.2122	13582.05	4.0380	4.0382	0.8090	7.30	1.33	0.750			
0.2147	13738.12	4.0350	4.0350	0.8110	7.29	1.32	0.750			
0.2171	13893.34	4.0320	4.0318	0.8139	7.29	1.32	0.750			
0.2196	14052.30	4.0290	4.0291	0.8118	7.29	1.32	0.750			
0.2220	14207.87	4.0260	4.0260	0.8215	7.28	1.31	0.750			
0.2245	14366.02	4.0230	4.0231	0.8257	7.28	1.31	0.750			
0.2269	14523.52	4.0200	4.0200	0.8250	7.27	1.30	0.750			
0.2294	14681.80	4.0170	4.0168	0.8287	7.27	1.30	0.750			
0.2319	14844.04	4.0140	4.0141	0.8295	7.26	1.29	0.750			
0.2344	15003.11	4.0110	4.0110	0.8346	7.25	1.28	0.750			
0.2369	15164.22	4.0080	4.0080	0.8373	7.24	1.27	0.750			
0.2394	15322.12	4.0050	4.0051	0.8374	7.24	1.27	0.750			
0.2419	15482.88	4.0020	4.0019	0.8458	7.23	1.26	0.750			
0.2445	15647.43	3.9990	3.9990	0.8508	7.23	1.26	0.750			
0.2471	15811.60	3.9960	3.9959	0.8594	7.22	1.25	0.750			
0.2497	15977.71	3.9930	3.9931	0.8677	7.22	1.25	0.750			
0.2523	16144.69	3.9900	3.9901	0.8700	7.21	1.24	0.750			
0.2549	16313.83	3.9870	3.9870	0.8748	7.21	1.24	0.750			
0.2575	16482.60	3.9840	3.9840	0.8737	7.20	1.23	0.750			
0.2602	16650.44	3.9810	3.9810	0.8734	7.19	1.22	0.750			
0.2628	16818.12	3.9780	3.9781	0.8753	7.18	1.21	0.750			
0.2654	16984.80	3.9750	3.9749	0.8754	7.17	1.20	0.750			
0.2680	17152.38	3.9720	3.9720	0.8808	7.17	1.20	0.750			
0.2706	17321.10	3.9690	3.9690	0.8846	7.16	1.19	0.750			
0.2733	17491.29	3.9660	3.9661	0.8928	7.15	1.18	0.750			
0.2760	17665.49	3.9630	3.9630	0.8998	7.14	1.17	0.750			
0.2787	17838.33	3.9600	3.9599	0.9046	7.13	1.16	0.750			
0.2815	18012.91	3.9570	3.9571	0.9030	7.13	1.16	0.750			
0.2842	18185.85	3.9540	3.9540	0.9111	7.12	1.15	0.750			
0.2869	18360.88	3.9510	3.9510	0.9168	7.12	1.15	0.750			
0.2897	18538.26	3.9480	3.9479	0.9222	7.11	1.14	0.750			
0.2924	18714.21	3.9450	3.9450	0.9287	7.11	1.14	0.750			
0.2952	18893.76	3.9420	3.9420	0.9370	7.10	1.13	0.750			
0.2980	19074.64	3.9390	3.9390	0.9429	7.09	1.12	0.750			
0.3009	19257.67	3.9360	3.9360	0.9474	7.08	1.11	0.750			
0.3037	19438.44	3.9330	3.9331	0.9526	7.07	1.10	0.750			
0.3066	19621.81	3.9300	3.9300	0.9652	7.06	1.09	0.750			
0.3096	19813.42	3.9270	3.9269	0.9509	7.05	1.08	0.750			
0.3125	19998.23	3.9240	3.9240	0.9387	7.04	1.07	0.750			
0.3153	20176.38	3.9210	3.9211	0.9354	7.03	1.06	0.750			
0.3180	20352.27	3.9180	3.9184	0.9357	7.03	1.06	0.750			
0.3208	20528.14	3.9150	3.9146	0.9273	7.02	1.05	0.750			
0.3235	20701.14	3.9120	3.9120	0.9376	7.01	1.04	0.750			
0.3262	20877.79	3.9090	3.9092	0.9563	7.00	1.03	0.750			
0.3292	21065.98	3.9060	3.9056	0.9954	6.99	1.02	0.750			
0.3322	21262.61	3.9030	3.9030	1.0136	6.98	1.01	0.750			
0.3353	21459.21	3.9000	3.9000	1.0332	6.97	1.00	0.750			
0.3385	21662.85	3.8970	3.8971	1.0497	6.96	0.99	0.750			
0.3418	21872.12	3.8940	3.8942	1.0650	6.95	0.98	0.750			
0.3449	22070.76	3.8910	3.8910	1.0686	6.94	0.97	0.750			
0.3481	22276.77	3.8880	3.8881	1.0814	6.93	0.96	0.750			
0.3513	22484.28	3.8850	3.8850	1.0924	6.92	0.95	0.750			
0.3547	22697.60	3.8820	3.8818	1.1013	6.91	0.94	0.750			
0.3580	22908.95	3.8790	3.8792	1.1141	6.90	0.93	0.750			
0.3613	23124.53	3.8760	3.8761	1.1325	6.89	0.92	0.750			
0.3647	23341.33	3.8730	3.8730	1.1474	6.88	0.91	0.750			
0.3682	23562.35	3.8700	3.8700	1.1498	6.86	0.89	0.750			
0.3716	23783.86	3.8670	3.8670	1.1663	6.85	0.88	0.750			
0.3751	24007.36	3.8640	3.8642	1.1955	6.84	0.87	0.750			
0.3788	24243.29	3.8610	3.8606	1.2134	6.83	0.86	0.750			
0.3824	24476.73	3.8580	3.8580	1.2255	6.82	0.85	0.750			
0.3862	24713.83	3.8550	3.8551	1.2487	6.81	0.84	0.750			
0.3900	24962.05	3.8520	3.8520	1.2538	6.79	0.82	0.750			
0.3939	25209.30	3.8490	3.8489	1.2498	6.78	0.81	0.750			
0.3973	25430.19	3.8460	3.8462	1.2877	6.77	0.80	0.750			
0.4012	25677.42	3.8430	3.8433	1.3221	6.76	0.79	0.750			
0.4052	25935.54	3.8400	3.8395	1.3781	6.75	0.78	0.750			
0.4094	26204.08	3.8370	3.8373	1.4238	6.73	0.76	0.750	0.371	0.896	
0.4139	26486.92	3.8340	3.8343	1.4574	6.72	0.75	0.750			
0.4186	26788.15	3.8310	3.8311	1.4901	6.70	0.73	0.750			
0.4228	27059.14	3.8280	3.8281	1.4711	6.69	0.72	0.750			
0.4272	27340.66	3.8250	3.8251	1.4636	6.68	0.71	0.750			
0.4316	27621.48	3.8220	3.8222	1.4882	6.66	0.69	0.750			
0.4360	27906.91	3.8190	3.8192	1.5371	6.65	0.68	0.750			
0.4408	28208.73	3.8160	3.8158	1.5650	6.63	0.66	0.750			
0.4456	28519.77	3.8130	3.8122	1.5963	6.62	0.65	0.750			
0.4503	28817.37	3.8100	3.8105	1.6330	6.60	0.63	0.750			
0.4552	29135.62	3.8070	3.8066	1.6795	6.59	0.62	0.750			
0.4604	29464.63	3.8040	3.8037	1.7197	6.56	0.59	0.750			
0.4655	29793.63	3.8010	3.8012	1.7220	6.54	0.57	0.750			
0.4709	30135.43	3.7980	3.7982	1.7465	6.53	0.56	0.750			
0.4760	30465.90	3.7950	3.7953	1.7888	6.52	0.55	0.750			
0.4814	30806.60	3.7920	3.7918	1.8119	6.50	0.53	0.750			
0.4868	31157.94	3.7890	3.7890	1.8788	6.47	0.50	0.750			
0.4925	31522.95	3.7860	3.7862	1.8905	6.45	0.48	0.750			
0.4983	31888.96	3.7830	3.7830	1.9121	6.43	0.46	0.750			
0.5041	32261.59	3.7800	3.7798	1.9142	6.42	0.45	0.750			
0.5100	32637.87	3.7770	3.7769	1.9416	6.40	0.43	0.750			
0.5157	33007.91	3.7740	3.7739	1.9333	6.37	0.40	0.750			
0.5216	33385.14	3.7710	3.7710	1.9580	6.35	0.38	0.750			
0.5275	33762.33	3.7680	3.7680	1.9771	6.33	0.36	0.750			
0.5336	34150.35	3.7650	3.7649	2.0572	6.31	0.34	0.750			
0.5399	34553.02	3.7620	3.7621	2.0624	6.29	0.32	0.750			
0.5462	34954.08	3.7590	3.7591	2.0924	6.27	0.30	0.750			
0.5524	35350.78	3.7560	3.7559	2.0807	6.24	0.27	0.750			
0.5585	35745.88	3.7530	3.7531	2.1148	6.22	0.25	0.750			
0.5650	36157.19	3.7500	3.7499	2.1374	6.19	0.22	0.750			
0.5714	36570.57	3.7470	3.7471	2.2191	6.17	0.20	0.750			
0.5783	37008.73	3.7440	3.7439	2.3332	6.15	0.18	0.750			
0.5852	37455.06	3.7410	3.7411	2.3518	6.13	0.16	0.750			
0.5927	37934.83	3.7380	3.7376	2.4151	6.11	0.14	0.750			
0.6001	38406.24	3.7350	3.7350	2.4529	6.09	0.12	0.750			
0.6075	38879.38	3.7320	3.7315	2.5211	6.07	0.10	0.750			
0.6150	39359.41	3.7290	3.7292	2.4798	6.05	0.08	0.750			
0.6229	39865.14	3.7260	3.7264	2.5802	6.04	0.07	0.750			
0.6302	40330.87	3.7230	3.7232	2.4888	6.03	0.06	0.750			
0.6377	40810.66	3.7200	3.7200	2.3890	6.00	0.03	0.750			
0.6450	41281.19	3.7170	3.7171	2.3054	5.99	0.02	0.750			
0.6519	41719.72	3.7140	3.7139	2.1527	5.98	0.01	0.750			
0.6580	42113.28	3.7110	3.7107	1.9149	5.98	0.01	0.750			
0.6634	42455.92	3.7080	3.7081	1.7243	5.97	0.00	0.750			
0.6682	42764.08	3.7050	3.7052	1.5408	5.97	-0.00	0.750			
0.6724	43032.97	3.7020	3.7017	1.3788	5.96	-0.01	0.750			
0.6763	43280.40	3.6990	3.6994	1.2453	5.95	-0.02	0.750			
0.6798	43507.78	3.6960	3.6958	1.1441	5.95	-0.02	0.750			
0.6830	43709.86	3.6930	3.6930	1.0472	5.95	-0.02	0.750			
0.6858	43891.70	3.6900	3.6901	0.9721	5.95	-0.02	0.750			
0.6887	44077.24	3.6870	3.6870	0.9457	5.95	-0.02	0.750			
0.6915	44253.13	3.6840	3.6837	0.9040	5.95	-0.02	0.750			
0.6941	44420.14	3.6810	3.6810	0.8681	5.95	-0.02	0.750			
0.6967	44589.28	3.6780	3.6781	0.8409	5.95	-0.02	0.750			
0.6992	44748.40	3.6750	3.6751	0.8092	5.95	-0.02	0.750			
0.7016	44899.59	3.6720	3.6720	0.7736	5.95	-0.02	0.750			
0.7038	45044.44	3.6690	3.6686	0.7395	5.95	-0.02	0.750			
0.7060	45182.89	3.6660	3.6660	0.7028	5.95	-0.02	0.750			
0.7081	45315.67	3.6630	3.6631	0.6714	5.96	-0.01	0.750			
0.7101	45443.23	3.6600	3.6599	0.6374	5.96	-0.01	0.750			
0.7119	45561.24	3.6570	3.6570	0.5947	5.96	-0.01	0.750			
0.7136	45672.95	3.6540	3.6539	0.5559	5.97	-0.00	0.750			
0.7152	45775.56	3.6510	3.6511	0.5176	5.97	-0.00	0.750			
0.7167	45871.63	3.6480	3.6481	0.4806	5.97	0.00	0.750			
0.7181	45960.07	3.6450	3.6450	0.4431	5.97	0.00	0.750			
0.7194	46039.56	3.6420	3.6420	0.4094	5.97	0.00	0.750			
0.7205	46115.10	3.6390	3.6390	0.3769	5.98	0.01	0.750			
0.7217	46185.83	3.6360	3.6359	0.3398	5.98	0.01	0.750			
0.7226	46248.46	3.6330	3.6331	0.3047	5.98	0.01	0.750			
0.7235	46303.97	3.6300	3.6302	0.2668	5.98	0.01	0.750			
0.7242	46351.81	3.6270	3.6268	0.2279	5.98	0.01	0.750			
0.7249	46391.10	3.6240	3.6238	0.1856	5.98	0.01	0.750			
0.7253	46420.58	3.6210	3.6214	0.1435	5.98	0.01	0.750			
0.7257	46446.00	3.6180	3.6185	0.1078	5.98	0.01	0.750			
0.7260	46463.05	3.6150	3.6161	0.0698	5.99	0.02	0.750			
0.7261	46473.07	3.6120	3.6132	0.0103	5.99	0.02	0.750			
