Ah_balance (normalized)	Ah_balance (mAh)	Voltage - fit (V)	Voltage -  interpolate (V)	dQ/dV (1/V)	Temperature (°C)	Temperature - diff (°C)	Current (C)	R_DC 0ms (mOhm)	R_DC 50ms (mOhm)	R_DC 50 ms PEC (mOhm)
0.0939	6011.40	3.9990	3.9991	-0.0970	5.99	0.00	-0.750			
0.0943	6032.15	3.9960	3.9960	-0.1223	5.99	0.00	-0.750			
0.0947	6058.73	3.9930	3.9930	-0.1480	5.99	0.00	-0.750			
0.0952	6090.22	3.9900	3.9899	-0.1708	5.99	0.00	-0.750			
0.0957	6125.02	3.9870	3.9869	-0.1949	5.99	0.00	-0.750			
0.0963	6165.03	3.9840	3.9840	-0.2191	5.99	-0.00	-0.750			
0.0970	6209.59	3.9810	3.9810	-0.2422	5.99	-0.00	-0.750			
0.0978	6258.12	3.9780	3.9778	-0.2654	5.99	-0.00	-0.750			
0.0986	6311.74	3.9750	3.9750	-0.2870	5.99	-0.00	-0.750			
0.0995	6368.95	3.9720	3.9721	-0.3087	5.98	-0.01	-0.750			
0.1005	6430.49	3.9690	3.9689	-0.3320	5.98	-0.01	-0.750			
0.1015	6496.33	3.9660	3.9661	-0.3552	5.98	-0.01	-0.750			
0.1026	6565.66	3.9630	3.9629	-0.3786	5.98	-0.01	-0.750			
0.1038	6640.29	3.9600	3.9600	-0.4051	5.98	-0.01	-0.750			
0.1050	6721.49	3.9570	3.9570	-0.4269	5.98	-0.01	-0.750			
0.1064	6806.56	3.9540	3.9541	-0.4490	5.97	-0.02	-0.750			
0.1077	6895.74	3.9510	3.9510	-0.4721	5.97	-0.02	-0.750			
0.1092	6988.25	3.9480	3.9480	-0.4920	5.97	-0.02	-0.750			
0.1107	7084.29	3.9450	3.9449	-0.5085	5.97	-0.02	-0.750			
0.1122	7182.94	3.9420	3.9420	-0.5286	5.97	-0.02	-0.750			
0.1139	7286.65	3.9390	3.9390	-0.5455	5.97	-0.02	-0.750			
0.1155	7394.27	3.9360	3.9359	-0.5645	5.97	-0.02	-0.750			
0.1173	7505.26	3.9330	3.9330	-0.5774	5.97	-0.02	-0.750			
0.1190	7616.85	3.9300	3.9300	-0.5905	5.97	-0.02	-0.750			
0.1208	7732.23	3.9270	3.9271	-0.6042	5.97	-0.02	-0.750			
0.1226	7849.52	3.9240	3.9240	-0.6188	5.97	-0.02	-0.750			
0.1245	7968.58	3.9210	3.9210	-0.6284	5.97	-0.02	-0.750			
0.1264	8090.31	3.9180	3.9180	-0.6470	5.97	-0.02	-0.750			
0.1284	8216.60	3.9150	3.9150	-0.6532	5.97	-0.02	-0.750			
0.1304	8345.26	3.9120	3.9119	-0.6633	5.97	-0.02	-0.750			
0.1324	8473.01	3.9090	3.9089	-0.6662	5.97	-0.02	-0.750			
0.1344	8601.92	3.9060	3.9059	-0.6713	5.97	-0.02	-0.750			
0.1364	8730.48	3.9030	3.9030	-0.6739	5.97	-0.02	-0.750			
0.1384	8859.16	3.9000	3.9000	-0.6805	5.98	-0.01	-0.750			
0.1405	8989.15	3.8970	3.8970	-0.6821	5.98	-0.01	-0.750			
0.1426	9123.99	3.8940	3.8939	-0.6937	5.98	-0.01	-0.750			
0.1447	9257.68	3.8910	3.8909	-0.6962	5.99	-0.00	-0.750			
0.1467	9391.62	3.8880	3.8881	-0.7000	5.99	0.00	-0.750			
0.1488	9526.18	3.8850	3.8850	-0.7039	5.99	0.00	-0.750			
0.1510	9661.15	3.8820	3.8820	-0.7096	6.00	0.01	-0.750			
0.1531	9796.95	3.8790	3.8790	-0.7086	6.00	0.01	-0.750			
0.1552	9934.23	3.8760	3.8760	-0.7144	6.00	0.01	-0.750			
0.1574	10072.89	3.8730	3.8730	-0.7173	6.01	0.02	-0.750			
0.1596	10211.30	3.8700	3.8699	-0.7159	6.01	0.02	-0.750			
0.1617	10348.18	3.8670	3.8670	-0.7172	6.02	0.03	-0.750			
0.1638	10485.79	3.8640	3.8640	-0.7199	6.03	0.04	-0.750			
0.1660	10623.62	3.8610	3.8609	-0.7211	6.03	0.04	-0.750			
0.1682	10762.86	3.8580	3.8580	-0.7263	6.04	0.05	-0.750			
0.1703	10901.75	3.8550	3.8550	-0.7275	6.05	0.06	-0.750			
0.1725	11042.48	3.8520	3.8519	-0.7278	6.05	0.06	-0.750			
0.1747	11182.69	3.8490	3.8489	-0.7306	6.06	0.07	-0.750			
0.1769	11322.23	3.8460	3.8461	-0.7341	6.06	0.07	-0.750			
0.1791	11464.88	3.8430	3.8429	-0.7330	6.06	0.07	-0.750			
0.1813	11606.38	3.8400	3.8399	-0.7364	6.07	0.08	-0.750			
0.1836	11747.94	3.8370	3.8374	-0.7361	6.07	0.08	-0.750			
0.1858	11889.75	3.8340	3.8339	-0.7349	6.08	0.09	-0.750			
0.1880	12029.50	3.8310	3.8309	-0.7395	6.08	0.09	-0.750			
0.1902	12170.06	3.8280	3.8280	-0.7335	6.09	0.10	-0.750			
0.1924	12313.48	3.8250	3.8249	-0.7387	6.10	0.11	-0.750			
0.1946	12454.45	3.8220	3.8220	-0.7386	6.11	0.12	-0.750			
0.1968	12595.14	3.8190	3.8190	-0.7374	6.11	0.12	-0.750			
0.1990	12737.12	3.8160	3.8160	-0.7393	6.12	0.13	-0.750			
0.2012	12878.95	3.8130	3.8129	-0.7423	6.13	0.14	-0.750			
0.2035	13021.71	3.8100	3.8100	-0.7406	6.13	0.14	-0.750			
0.2057	13166.34	3.8070	3.8069	-0.7426	6.14	0.15	-0.750			
0.2079	13308.14	3.8040	3.8041	-0.7430	6.15	0.16	-0.750			
0.2102	13449.92	3.8010	3.8009	-0.7403	6.16	0.17	-0.750			
0.2124	13591.11	3.7980	3.7979	-0.7395	6.16	0.17	-0.750			
0.2146	13733.14	3.7950	3.7950	-0.7467	6.17	0.18	-0.750			
0.2168	13876.34	3.7920	3.7920	-0.7459	6.18	0.19	-0.750			
0.2191	14023.51	3.7890	3.7889	-0.7501	6.18	0.19	-0.750			
0.2214	14166.41	3.7860	3.7862	-0.7511	6.19	0.20	-0.750			
0.2236	14309.61	3.7830	3.7830	-0.7490	6.20	0.21	-0.750			
0.2258	14453.73	3.7800	3.7799	-0.7545	6.21	0.22	-0.750			
0.2281	14597.86	3.7770	3.7770	-0.7527	6.21	0.22	-0.750			
0.2304	14744.81	3.7740	3.7740	-0.7549	6.22	0.23	-0.750			
0.2326	14888.82	3.7710	3.7709	-0.7617	6.23	0.24	-0.750			
0.2349	15035.69	3.7680	3.7680	-0.7663	6.23	0.24	-0.750			
0.2372	15181.84	3.7650	3.7648	-0.7704	6.24	0.25	-0.750			
0.2395	15330.31	3.7620	3.7621	-0.7734	6.24	0.25	-0.750			
0.2418	15478.29	3.7590	3.7591	-0.7748	6.25	0.26	-0.750			
0.2442	15631.58	3.7560	3.7560	-0.7822	6.26	0.27	-0.750			
0.2466	15781.41	3.7530	3.7531	-0.7811	6.26	0.27	-0.750			
0.2489	15929.61	3.7500	3.7499	-0.7773	6.27	0.28	-0.750			
0.2512	16078.38	3.7470	3.7471	-0.7871	6.27	0.28	-0.750			
0.2536	16230.62	3.7440	3.7440	-0.7891	6.28	0.29	-0.750			
0.2560	16383.85	3.7410	3.7409	-0.7939	6.28	0.29	-0.750			
0.2584	16535.56	3.7380	3.7383	-0.7973	6.29	0.30	-0.750			
0.2608	16688.62	3.7350	3.7350	-0.8050	6.30	0.31	-0.750			
0.2632	16842.88	3.7320	3.7319	-0.8122	6.30	0.31	-0.750			
0.2656	16999.36	3.7290	3.7289	-0.8142	6.31	0.32	-0.750			
0.2681	17157.44	3.7260	3.7260	-0.8236	6.32	0.33	-0.750			
0.2706	17316.65	3.7230	3.7231	-0.8278	6.33	0.34	-0.750			
0.2731	17476.40	3.7200	3.7200	-0.8331	6.33	0.34	-0.750			
0.2756	17635.55	3.7170	3.7170	-0.8426	6.34	0.35	-0.750			
0.2781	17797.37	3.7140	3.7139	-0.8470	6.34	0.35	-0.750			
0.2806	17960.91	3.7110	3.7109	-0.8543	6.35	0.36	-0.750			
0.2832	18127.95	3.7080	3.7082	-0.8626	6.35	0.36	-0.750			
0.2858	18293.04	3.7050	3.7050	-0.8664	6.35	0.36	-0.750			
0.2885	18461.16	3.7020	3.7019	-0.8736	6.36	0.37	-0.750			
0.2911	18627.89	3.6990	3.6989	-0.8774	6.36	0.37	-0.750			
0.2937	18796.95	3.6960	3.6960	-0.8852	6.37	0.38	-0.750			
0.2964	18967.07	3.6930	3.6932	-0.8905	6.37	0.38	-0.750			
0.2990	19138.70	3.6900	3.6899	-0.8982	6.38	0.39	-0.750			
0.3017	19311.75	3.6870	3.6870	-0.9041	6.39	0.40	-0.750			
0.3044	19484.67	3.6840	3.6840	-0.9129	6.40	0.41	-0.750			
0.3072	19662.26	3.6810	3.6809	-0.9206	6.41	0.42	-0.750			
0.3100	19838.85	3.6780	3.6780	-0.9246	6.41	0.42	-0.750			
0.3128	20016.57	3.6750	3.6750	-0.9452	6.42	0.43	-0.750			
0.3156	20200.63	3.6720	3.6718	-0.9515	6.42	0.43	-0.750			
0.3185	20385.33	3.6690	3.6689	-0.9558	6.43	0.44	-0.750			
0.3214	20571.33	3.6660	3.6663	-0.9526	6.43	0.44	-0.750			
0.3243	20753.78	3.6630	3.6630	-0.9688	6.44	0.45	-0.750			
0.3272	20940.79	3.6600	3.6599	-0.9772	6.44	0.45	-0.750			
0.3301	21125.76	3.6570	3.6568	-0.9754	6.44	0.45	-0.750			
0.3330	21314.12	3.6540	3.6543	-0.9941	6.45	0.46	-0.750			
0.3360	21506.80	3.6510	3.6510	-1.0115	6.45	0.46	-0.750			
0.3391	21705.06	3.6480	3.6478	-1.0221	6.46	0.47	-0.750			
0.3422	21901.37	3.6450	3.6449	-1.0293	6.46	0.47	-0.750			
0.3453	22099.43	3.6420	3.6421	-1.0399	6.47	0.48	-0.750			
0.3484	22299.92	3.6390	3.6389	-1.0479	6.47	0.48	-0.750			
0.3516	22503.30	3.6360	3.6358	-1.0524	6.48	0.49	-0.750			
0.3547	22702.92	3.6330	3.6331	-1.0495	6.48	0.49	-0.750			
0.3579	22904.84	3.6300	3.6301	-1.0550	6.49	0.50	-0.750			
0.3611	23109.50	3.6270	3.6270	-1.0796	6.49	0.50	-0.750			
0.3643	23318.22	3.6240	3.6239	-1.0815	6.50	0.51	-0.750			
0.3676	23524.93	3.6210	3.6209	-1.0907	6.50	0.51	-0.750			
0.3709	23735.02	3.6180	3.6183	-1.1031	6.51	0.52	-0.750			
0.3742	23950.90	3.6150	3.6149	-1.1152	6.51	0.52	-0.750			
0.3776	24166.23	3.6120	3.6119	-1.1212	6.51	0.52	-0.750			
0.3809	24380.60	3.6090	3.6090	-1.1219	6.51	0.52	-0.750			
0.3843	24596.28	3.6060	3.6061	-1.1415	6.51	0.52	-0.750			
0.3878	24818.70	3.6030	3.6030	-1.1536	6.52	0.53	-0.750			
0.3912	25038.28	3.6000	3.5999	-1.1606	6.52	0.53	-0.750			
0.3947	25262.04	3.5970	3.5970	-1.1769	6.53	0.54	-0.750			
0.3983	25490.77	3.5940	3.5939	-1.1901	6.53	0.54	-0.750			
0.4019	25721.84	3.5910	3.5909	-1.1914	6.53	0.54	-0.750			
0.4055	25951.47	3.5880	3.5880	-1.1996	6.53	0.54	-0.750			
0.4091	26179.48	3.5850	3.5853	-1.2091	6.53	0.54	-0.750	0.476	1.079	
0.4127	26415.46	3.5820	3.5819	-1.2198	6.54	0.55	-0.750			
0.4164	26648.90	3.5790	3.5789	-1.2252	6.54	0.55	-0.750			
0.4200	26881.06	3.5760	3.5761	-1.2442	6.55	0.56	-0.750			
0.4238	27124.49	3.5730	3.5731	-1.2605	6.55	0.56	-0.750			
0.4276	27369.28	3.5700	3.5699	-1.2711	6.56	0.57	-0.750			
0.4314	27610.09	3.5670	3.5670	-1.2879	6.57	0.58	-0.750			
0.4354	27863.45	3.5640	3.5639	-1.2930	6.57	0.58	-0.750			
0.4393	28117.47	3.5610	3.5609	-1.3018	6.58	0.59	-0.750			
0.4432	28363.32	3.5580	3.5579	-1.3124	6.59	0.60	-0.750			
0.4471	28612.22	3.5550	3.5553	-1.3173	6.59	0.60	-0.750			
0.4511	28868.71	3.5520	3.5518	-1.3393	6.60	0.61	-0.750			
0.4551	29124.66	3.5490	3.5489	-1.3535	6.60	0.61	-0.750			
0.4592	29387.37	3.5460	3.5461	-1.3728	6.61	0.62	-0.750			
0.4635	29662.28	3.5430	3.5429	-1.3994	6.62	0.63	-0.750			
0.4677	29930.83	3.5400	3.5399	-1.4323	6.62	0.63	-0.750			
0.4720	30209.00	3.5370	3.5372	-1.4300	6.63	0.64	-0.750			
0.4763	30483.57	3.5340	3.5338	-1.4501	6.64	0.65	-0.750			
0.4807	30764.10	3.5310	3.5310	-1.4506	6.65	0.66	-0.750			
0.4850	31040.37	3.5280	3.5281	-1.4433	6.65	0.66	-0.750			
0.4894	31323.98	3.5250	3.5249	-1.4753	6.66	0.67	-0.750			
0.4938	31605.21	3.5220	3.5220	-1.4823	6.67	0.68	-0.750			
0.4983	31888.29	3.5190	3.5189	-1.4845	6.67	0.68	-0.750			
0.5028	32180.42	3.5160	3.5159	-1.4978	6.68	0.69	-0.750			
0.5073	32467.04	3.5130	3.5129	-1.5040	6.69	0.70	-0.750			
0.5119	32761.43	3.5100	3.5099	-1.5206	6.70	0.71	-0.750			
0.5164	33046.74	3.5070	3.5069	-1.5575	6.70	0.71	-0.750			
0.5209	33335.89	3.5040	3.5044	-1.5743	6.71	0.72	-0.750			
0.5257	33643.22	3.5010	3.5011	-1.6102	6.72	0.73	-0.750			
0.5306	33961.55	3.4980	3.4974	-1.6440	6.73	0.74	-0.750			
0.5357	34287.22	3.4950	3.4952	-1.6211	6.74	0.75	-0.750			
0.5407	34606.57	3.4920	3.4921	-1.6108	6.75	0.76	-0.750			
0.5455	34913.66	3.4890	3.4890	-1.5798	6.77	0.78	-0.750			
0.5501	35204.53	3.4860	3.4859	-1.5565	6.78	0.79	-0.750			
0.5544	35483.88	3.4830	3.4829	-1.5078	6.80	0.81	-0.750			
0.5590	35777.40	3.4800	3.4801	-1.5136	6.81	0.82	-0.750			
0.5635	36066.73	3.4770	3.4769	-1.5187	6.82	0.83	-0.750			
0.5682	36362.26	3.4740	3.4741	-1.5232	6.83	0.84	-0.750			
0.5727	36654.90	3.4710	3.4710	-1.5120	6.84	0.85	-0.750			
0.5773	36945.59	3.4680	3.4679	-1.5039	6.85	0.86	-0.750			
0.5818	37232.99	3.4650	3.4650	-1.4922	6.86	0.87	-0.750			
0.5862	37518.58	3.4620	3.4620	-1.4767	6.88	0.89	-0.750			
0.5907	37801.93	3.4590	3.4590	-1.4633	6.89	0.90	-0.750			
0.5950	38079.41	3.4560	3.4559	-1.4453	6.91	0.92	-0.750			
0.5993	38356.47	3.4530	3.4530	-1.4347	6.92	0.93	-0.750			
0.6036	38631.15	3.4500	3.4500	-1.4242	6.93	0.94	-0.750			
0.6079	38902.64	3.4470	3.4470	-1.4141	6.94	0.95	-0.750			
0.6121	39173.74	3.4440	3.4439	-1.3919	6.95	0.96	-0.750			
0.6163	39443.15	3.4410	3.4409	-1.3805	6.97	0.98	-0.750			
0.6204	39706.54	3.4380	3.4382	-1.3609	6.99	1.00	-0.750			
0.6245	39966.07	3.4350	3.4349	-1.3343	7.00	1.01	-0.750			
0.6285	40221.79	3.4320	3.4319	-1.3073	7.01	1.02	-0.750			
0.6323	40468.60	3.4290	3.4291	-1.2821	7.03	1.04	-0.750			
0.6361	40710.69	3.4260	3.4260	-1.2526	7.04	1.05	-0.750			
0.6399	40952.68	3.4230	3.4229	-1.2338	7.06	1.07	-0.750			
0.6435	41184.17	3.4200	3.4199	-1.2029	7.08	1.09	-0.750			
0.6470	41410.18	3.4170	3.4171	-1.1845	7.09	1.10	-0.750			
0.6506	41639.35	3.4140	3.4140	-1.1684	7.10	1.11	-0.750			
0.6541	41863.13	3.4110	3.4109	-1.1395	7.12	1.13	-0.750			
0.6575	42079.36	3.4080	3.4080	-1.1122	7.13	1.14	-0.750			
0.6608	42291.30	3.4050	3.4050	-1.0918	7.14	1.15	-0.750			
0.6640	42497.52	3.4020	3.4019	-1.0634	7.16	1.17	-0.750			
0.6672	42698.72	3.3990	3.3989	-1.0359	7.17	1.18	-0.750			
0.6702	42891.74	3.3960	3.3960	-1.0068	7.19	1.20	-0.750			
0.6732	43086.08	3.3930	3.3930	-0.9933	7.20	1.21	-0.750			
0.6762	43276.26	3.3900	3.3900	-0.9667	7.21	1.22	-0.750			
0.6791	43459.21	3.3870	3.3869	-0.9364	7.23	1.24	-0.750			
0.6818	43634.91	3.3840	3.3841	-0.9133	7.24	1.25	-0.750			
0.6845	43809.05	3.3810	3.3810	-0.8901	7.25	1.26	-0.750			
0.6871	43976.70	3.3780	3.3779	-0.8686	7.27	1.28	-0.750			
0.6897	44140.78	3.3750	3.3750	-0.8417	7.28	1.29	-0.750			
0.6922	44299.94	3.3720	3.3721	-0.8220	7.29	1.30	-0.750			
0.6946	44456.28	3.3690	3.3689	-0.8061	7.30	1.31	-0.750			
0.6970	44608.92	3.3660	3.3660	-0.7874	7.32	1.33	-0.750			
0.6993	44757.67	3.3630	3.3629	-0.7651	7.33	1.34	-0.750			
0.7016	44903.51	3.3600	3.3600	-0.7481	7.35	1.36	-0.750			
0.7038	45044.54	3.3570	3.3570	-0.7264	7.36	1.37	-0.750			
0.7060	45184.03	3.3540	3.3540	-0.7093	7.37	1.38	-0.750			
0.7081	45317.23	3.3510	3.3510	-0.6872	7.39	1.40	-0.750			
0.7101	45446.55	3.3480	3.3480	-0.6691	7.40	1.41	-0.750			
0.7121	45572.57	3.3450	3.3450	-0.6532	7.41	1.42	-0.750			
0.7140	45696.86	3.3420	3.3420	-0.6387	7.43	1.44	-0.750			
0.7159	45818.47	3.3390	3.3390	-0.6326	7.44	1.45	-0.750			
