Ah_balance (normalized)	Ah_balance (mAh)	Voltage - fit (V)	Voltage -  interpolate (V)	dQ/dV (1/V)	Temperature (°C)	Temperature - diff (°C)	Current (C)	R_DC 0ms (mOhm)	R_DC 50ms (mOhm)	R_DC 50 ms PEC (mOhm)
0.0827	5293.82	4.0200	4.0194	-0.0848	5.98	0.01	-0.750			
0.0830	5313.10	4.0170	4.0168	-0.1161	5.98	0.01	-0.750			
0.0834	5339.41	4.0140	4.0139	-0.1452	5.98	0.01	-0.750			
0.0839	5369.51	4.0110	4.0110	-0.1744	5.98	0.01	-0.750			
0.0845	5406.08	4.0080	4.0081	-0.2023	5.98	0.01	-0.750			
0.0851	5448.06	4.0050	4.0050	-0.2270	5.98	0.01	-0.750			
0.0859	5495.07	4.0020	4.0019	-0.2541	5.98	0.01	-0.750			
0.0867	5546.28	3.9990	3.9992	-0.2791	5.97	0.00	-0.750			
0.0875	5601.95	3.9960	3.9960	-0.3052	5.97	0.00	-0.750			
0.0885	5663.50	3.9930	3.9929	-0.3304	5.97	0.00	-0.750			
0.0895	5728.55	3.9900	3.9900	-0.3563	5.97	-0.00	-0.750			
0.0906	5799.42	3.9870	3.9870	-0.3840	5.97	-0.00	-0.750			
0.0918	5876.00	3.9840	3.9841	-0.4112	5.97	-0.00	-0.750			
0.0931	5957.92	3.9810	3.9810	-0.4354	5.96	-0.01	-0.750			
0.0944	6043.54	3.9780	3.9780	-0.4628	5.96	-0.01	-0.750			
0.0959	6134.84	3.9750	3.9750	-0.4892	5.96	-0.01	-0.750			
0.0974	6232.04	3.9720	3.9719	-0.5117	5.96	-0.01	-0.750			
0.0989	6332.55	3.9690	3.9690	-0.5340	5.95	-0.02	-0.750			
0.1006	6437.52	3.9660	3.9661	-0.5571	5.95	-0.02	-0.750			
0.1023	6547.38	3.9630	3.9632	-0.5763	5.95	-0.02	-0.750			
0.1041	6659.95	3.9600	3.9599	-0.5963	5.95	-0.02	-0.750			
0.1059	6775.32	3.9570	3.9571	-0.6141	5.95	-0.02	-0.750			
0.1077	6895.88	3.9540	3.9539	-0.6328	5.95	-0.02	-0.750			
0.1097	7021.37	3.9510	3.9510	-0.6486	5.95	-0.02	-0.750			
0.1117	7146.76	3.9480	3.9481	-0.6612	5.95	-0.02	-0.750			
0.1137	7274.95	3.9450	3.9450	-0.6735	5.95	-0.02	-0.750			
0.1157	7405.70	3.9420	3.9420	-0.6865	5.95	-0.02	-0.750			
0.1178	7537.56	3.9390	3.9390	-0.6943	5.95	-0.02	-0.750			
0.1199	7671.95	3.9360	3.9359	-0.7073	5.95	-0.02	-0.750			
0.1220	7810.20	3.9330	3.9330	-0.7183	5.96	-0.01	-0.750			
0.1242	7949.70	3.9300	3.9299	-0.7246	5.96	-0.01	-0.750			
0.1264	8090.11	3.9270	3.9271	-0.7299	5.96	-0.01	-0.750			
0.1286	8230.80	3.9240	3.9240	-0.7367	5.96	-0.01	-0.750			
0.1308	8372.48	3.9210	3.9209	-0.7393	5.96	-0.01	-0.750			
0.1331	8515.30	3.9180	3.9180	-0.7474	5.96	-0.01	-0.750			
0.1353	8658.99	3.9150	3.9150	-0.7466	5.97	-0.00	-0.750			
0.1376	8803.88	3.9120	3.9120	-0.7537	5.97	-0.00	-0.750			
0.1398	8948.94	3.9090	3.9092	-0.7573	5.97	0.00	-0.750			
0.1421	9093.97	3.9060	3.9059	-0.7610	5.97	0.00	-0.750			
0.1444	9240.20	3.9030	3.9030	-0.7645	5.98	0.01	-0.750			
0.1467	9387.77	3.9000	3.9001	-0.7658	5.98	0.01	-0.750			
0.1490	9535.98	3.8970	3.8969	-0.7733	5.99	0.02	-0.750			
0.1513	9684.96	3.8940	3.8940	-0.7749	5.99	0.02	-0.750			
0.1536	9831.97	3.8910	3.8910	-0.7772	5.99	0.02	-0.750			
0.1559	9980.38	3.8880	3.8880	-0.7878	6.00	0.03	-0.750			
0.1583	10133.84	3.8850	3.8850	-0.7859	6.00	0.03	-0.750			
0.1607	10285.83	3.8820	3.8820	-0.7896	6.00	0.03	-0.750			
0.1631	10439.99	3.8790	3.8790	-0.7943	6.01	0.04	-0.750			
0.1655	10591.74	3.8760	3.8760	-0.7907	6.01	0.04	-0.750			
0.1678	10741.98	3.8730	3.8729	-0.7935	6.02	0.05	-0.750			
0.1702	10893.45	3.8700	3.8701	-0.7943	6.02	0.05	-0.750			
0.1726	11046.27	3.8670	3.8669	-0.7912	6.03	0.06	-0.750			
0.1750	11200.57	3.8640	3.8639	-0.7990	6.04	0.07	-0.750			
0.1774	11353.11	3.8610	3.8612	-0.7977	6.04	0.07	-0.750			
0.1798	11506.37	3.8580	3.8580	-0.7980	6.04	0.07	-0.750			
0.1822	11659.92	3.8550	3.8549	-0.8023	6.04	0.07	-0.750			
0.1846	11814.24	3.8520	3.8519	-0.7999	6.05	0.08	-0.750			
0.1870	11968.00	3.8490	3.8490	-0.8027	6.05	0.08	-0.750			
0.1894	12121.96	3.8460	3.8462	-0.8074	6.05	0.08	-0.750			
0.1918	12276.26	3.8430	3.8429	-0.8089	6.06	0.09	-0.750			
0.1943	12432.71	3.8400	3.8400	-0.8150	6.07	0.10	-0.750			
0.1967	12589.33	3.8370	3.8370	-0.8148	6.07	0.10	-0.750			
0.1992	12747.79	3.8340	3.8340	-0.8183	6.08	0.11	-0.750			
0.2017	12905.63	3.8310	3.8311	-0.8150	6.09	0.12	-0.750			
0.2041	13060.11	3.8280	3.8280	-0.8139	6.09	0.12	-0.750			
0.2065	13215.15	3.8250	3.8249	-0.8159	6.10	0.13	-0.750			
0.2089	13372.00	3.8220	3.8220	-0.8130	6.10	0.13	-0.750			
0.2114	13528.54	3.8190	3.8190	-0.8120	6.11	0.14	-0.750			
0.2139	13686.42	3.8160	3.8161	-0.8161	6.11	0.14	-0.750			
0.2164	13846.85	3.8130	3.8129	-0.7826	6.11	0.14	-0.750			
0.2187	13997.24	3.8100	3.8099	-0.7618	6.12	0.15	-0.750			
0.2209	14137.82	3.8070	3.8073	-0.7493	6.12	0.15	-0.750			
0.2230	14274.15	3.8040	3.8037	-0.7502	6.12	0.15	-0.750			
0.2252	14414.94	3.8010	3.8007	-0.7569	6.13	0.16	-0.750			
0.2275	14559.16	3.7980	3.7981	-0.7732	6.13	0.16	-0.750			
0.2298	14709.60	3.7950	3.7952	-0.7963	6.14	0.17	-0.750			
0.2324	14873.13	3.7920	3.7919	-0.8252	6.15	0.18	-0.750			
0.2349	15033.05	3.7890	3.7889	-0.8265	6.16	0.19	-0.750			
0.2374	15193.12	3.7860	3.7860	-0.8296	6.16	0.19	-0.750			
0.2399	15353.25	3.7830	3.7832	-0.8241	6.17	0.20	-0.750			
0.2424	15512.62	3.7800	3.7800	-0.8208	6.17	0.20	-0.750			
0.2448	15669.36	3.7770	3.7769	-0.8200	6.18	0.21	-0.750			
0.2473	15824.04	3.7740	3.7740	-0.8163	6.18	0.21	-0.750			
0.2497	15981.23	3.7710	3.7709	-0.8208	6.19	0.22	-0.750			
0.2522	16138.19	3.7680	3.7683	-0.8192	6.19	0.22	-0.750			
0.2546	16295.94	3.7650	3.7649	-0.8223	6.19	0.22	-0.750			
0.2571	16454.32	3.7620	3.7621	-0.8293	6.20	0.23	-0.750			
0.2596	16614.25	3.7590	3.7590	-0.8278	6.20	0.23	-0.750			
0.2621	16775.74	3.7560	3.7559	-0.8340	6.21	0.24	-0.750			
0.2646	16934.73	3.7530	3.7531	-0.8300	6.21	0.24	-0.750			
0.2671	17092.69	3.7500	3.7501	-0.8301	6.21	0.24	-0.750			
0.2696	17251.71	3.7470	3.7469	-0.8363	6.22	0.25	-0.750			
0.2721	17412.27	3.7440	3.7439	-0.8335	6.22	0.25	-0.750			
0.2746	17572.95	3.7410	3.7410	-0.8378	6.23	0.26	-0.750			
0.2771	17734.65	3.7380	3.7382	-0.8404	6.23	0.26	-0.750			
0.2796	17897.23	3.7350	3.7350	-0.8453	6.23	0.26	-0.750			
0.2822	18059.66	3.7320	3.7319	-0.8487	6.24	0.27	-0.750			
0.2847	18221.06	3.7290	3.7290	-0.8460	6.24	0.27	-0.750			
0.2873	18384.51	3.7260	3.7260	-0.8528	6.25	0.28	-0.750			
0.2898	18550.07	3.7230	3.7231	-0.8533	6.25	0.28	-0.750			
0.2924	18713.08	3.7200	3.7200	-0.8569	6.25	0.28	-0.750			
0.2950	18877.38	3.7170	3.7169	-0.8585	6.26	0.29	-0.750			
0.2975	19040.03	3.7140	3.7140	-0.8622	6.26	0.29	-0.750			
0.3001	19206.46	3.7110	3.7109	-0.8720	6.27	0.30	-0.750			
0.3027	19375.47	3.7080	3.7081	-0.8774	6.27	0.30	-0.750			
0.3054	19543.92	3.7050	3.7050	-0.8886	6.28	0.31	-0.750			
0.3081	19717.13	3.7020	3.7020	-0.8963	6.28	0.31	-0.750			
0.3108	19889.01	3.6990	3.6990	-0.9003	6.28	0.31	-0.750			
0.3135	20063.91	3.6960	3.6959	-0.9100	6.29	0.32	-0.750			
0.3162	20234.77	3.6930	3.6932	-0.9233	6.29	0.32	-0.750			
0.3190	20415.98	3.6900	3.6899	-0.9313	6.30	0.33	-0.750			
0.3218	20598.35	3.6870	3.6869	-0.9360	6.30	0.33	-0.750			
0.3246	20777.41	3.6840	3.6839	-0.9352	6.31	0.34	-0.750			
0.3275	20958.38	3.6810	3.6812	-0.9487	6.31	0.34	-0.750			
0.3303	21138.91	3.6780	3.6779	-0.9574	6.31	0.34	-0.750			
0.3331	21321.44	3.6750	3.6749	-0.9629	6.31	0.34	-0.750			
0.3360	21506.05	3.6720	3.6720	-0.9662	6.32	0.35	-0.750			
0.3390	21698.43	3.6690	3.6691	-0.9877	6.32	0.35	-0.750			
0.3420	21887.55	3.6660	3.6660	-0.9994	6.32	0.35	-0.750			
0.3450	22079.85	3.6630	3.6629	-1.0082	6.32	0.35	-0.750			
0.3480	22274.09	3.6600	3.6600	-1.0145	6.33	0.36	-0.750			
0.3511	22468.88	3.6570	3.6569	-1.0250	6.33	0.36	-0.750			
0.3542	22668.77	3.6540	3.6540	-1.0498	6.33	0.36	-0.750			
0.3574	22872.25	3.6510	3.6510	-1.0634	6.34	0.37	-0.750			
0.3606	23077.76	3.6480	3.6478	-1.0707	6.34	0.37	-0.750			
0.3638	23282.54	3.6450	3.6453	-1.0770	6.35	0.38	-0.750			
0.3671	23493.73	3.6420	3.6419	-1.0969	6.35	0.38	-0.750			
0.3704	23706.20	3.6390	3.6388	-1.1047	6.35	0.38	-0.750			
0.3737	23918.03	3.6360	3.6360	-1.1054	6.35	0.38	-0.750			
0.3770	24127.86	3.6330	3.6333	-1.1202	6.35	0.38	-0.750			
0.3805	24351.08	3.6300	3.6299	-1.1283	6.35	0.38	-0.750			
0.3839	24567.16	3.6270	3.6269	-1.1394	6.36	0.39	-0.750			
0.3872	24781.79	3.6240	3.6240	-1.1560	6.36	0.39	-0.750			
0.3907	25006.99	3.6210	3.6211	-1.1830	6.36	0.39	-0.750			
0.3943	25237.52	3.6180	3.6177	-1.1992	6.36	0.39	-0.750			
0.3980	25470.27	3.6150	3.6150	-1.2192	6.36	0.39	-0.750			
0.4016	25704.76	3.6120	3.6122	-1.2361	6.36	0.39	-0.750			
0.4054	25948.63	3.6090	3.6089	-1.2549	6.36	0.39	-0.750			
0.4092	26189.37	3.6060	3.6059	-1.2494	6.35	0.38	-0.750			
0.4129	26425.39	3.6030	3.6031	-1.2750	6.35	0.38	-0.750			
0.4168	26675.33	3.6000	3.6000	-1.2939	6.35	0.38	-0.750			
0.4207	26923.67	3.5970	3.5968	-1.3008	6.36	0.39	-0.750			
0.4246	27172.32	3.5940	3.5940	-1.3267	6.37	0.40	-0.750			
0.4286	27429.64	3.5910	3.5909	-1.3377	6.37	0.40	-0.750			
0.4327	27690.54	3.5880	3.5879	-1.3528	6.37	0.40	-0.750			
0.4367	27951.69	3.5850	3.5849	-1.3762	6.37	0.40	-0.750			
0.4408	28213.78	3.5820	3.5822	-1.3831	6.37	0.40	-0.750			
0.4451	28486.14	3.5790	3.5788	-1.4060	6.37	0.40	-0.750			
0.4493	28754.10	3.5760	3.5759	-1.4229	6.37	0.40	-0.750			
0.4535	29024.67	3.5730	3.5731	-1.4324	6.37	0.40	-0.750			
0.4579	29306.45	3.5700	3.5700	-1.4662	6.37	0.40	-0.750			
0.4624	29591.47	3.5670	3.5669	-1.4854	6.37	0.40	-0.750			
0.4668	29875.22	3.5640	3.5639	-1.5057	6.37	0.40	-0.750			
0.4715	30173.26	3.5610	3.5610	-1.5283	6.38	0.41	-0.750			
0.4761	30471.23	3.5580	3.5579	-1.5450	6.39	0.42	-0.750			
0.4807	30767.49	3.5550	3.5550	-1.5576	6.40	0.43	-0.750			
0.4855	31071.72	3.5520	3.5519	-1.5595	6.40	0.43	-0.750			
0.4902	31371.40	3.5490	3.5490	-1.5785	6.41	0.44	-0.750			
0.4949	31672.78	3.5460	3.5462	-1.5972	6.41	0.44	-0.750			
0.4997	31982.27	3.5430	3.5428	-1.5954	6.41	0.44	-0.750			
0.5047	32298.25	3.5400	3.5400	-1.6093	6.41	0.44	-0.750			
0.5094	32601.37	3.5370	3.5371	-1.6315	6.41	0.44	-0.750			
0.5143	32912.50	3.5340	3.5341	-1.6437	6.41	0.44	-0.750			
0.5192	33230.32	3.5310	3.5309	-1.6410	6.41	0.44	-0.750			
0.5242	33546.98	3.5280	3.5279	-1.6744	6.42	0.45	-0.750			
0.5292	33868.10	3.5250	3.5249	-1.6841	6.42	0.45	-0.750			
0.5344	34202.20	3.5220	3.5217	-1.7159	6.43	0.46	-0.750			
0.5395	34529.16	3.5190	3.5190	-1.7234	6.43	0.46	-0.750			
0.5447	34860.85	3.5160	3.5157	-1.7366	6.43	0.46	-0.750			
0.5500	35200.75	3.5130	3.5129	-1.7472	6.43	0.46	-0.750			
0.5553	35539.18	3.5100	3.5102	-1.7595	6.43	0.46	-0.750			
0.5606	35880.26	3.5070	3.5072	-1.7643	6.43	0.46	-0.750			
0.5660	36224.85	3.5040	3.5039	-1.7540	6.43	0.46	-0.750			
0.5712	36559.25	3.5010	3.5012	-1.7485	6.44	0.47	-0.750			
0.5766	36899.51	3.4980	3.4981	-1.7418	6.44	0.47	-0.750			
0.5818	37232.52	3.4950	3.4950	-1.7208	6.45	0.48	-0.750			
0.5869	37561.57	3.4920	3.4919	-1.7200	6.46	0.49	-0.750			
0.5920	37889.51	3.4890	3.4892	-1.7057	6.47	0.50	-0.750			
0.5971	38215.46	3.4860	3.4860	-1.7104	6.47	0.50	-0.750			
0.6023	38546.66	3.4830	3.4832	-1.6961	6.47	0.50	-0.750			
0.6074	38870.81	3.4800	3.4801	-1.6878	6.48	0.51	-0.750			
0.6124	39193.64	3.4770	3.4770	-1.6722	6.49	0.52	-0.750			
0.6174	39516.28	3.4740	3.4739	-1.6553	6.49	0.52	-0.750			
0.6224	39830.76	3.4710	3.4711	-1.6305	6.50	0.53	-0.750			
0.6272	40137.81	3.4680	3.4682	-1.6151	6.51	0.54	-0.750			
0.6320	40446.38	3.4650	3.4647	-1.5925	6.53	0.56	-0.750			
0.6368	40753.36	3.4620	3.4620	-1.5770	6.54	0.57	-0.750			
0.6415	41056.90	3.4590	3.4589	-1.5433	6.55	0.58	-0.750			
0.6462	41355.43	3.4560	3.4561	-1.5286	6.56	0.59	-0.750			
0.6507	41643.36	3.4530	3.4529	-1.4875	6.57	0.60	-0.750			
0.6551	41928.33	3.4500	3.4498	-1.4500	6.58	0.61	-0.750			
0.6594	42204.47	3.4470	3.4471	-1.4186	6.59	0.62	-0.750			
0.6636	42471.65	3.4440	3.4441	-1.3925	6.61	0.64	-0.750			
0.6677	42730.93	3.4410	3.4410	-1.3627	6.62	0.65	-0.750			
0.6718	42996.02	3.4380	3.4379	-1.3498	6.63	0.66	-0.750			
0.6757	43247.42	3.4350	3.4350	-1.3267	6.65	0.68	-0.750			
0.6797	43503.15	3.4320	3.4319	-1.3022	6.66	0.69	-0.750			
0.6837	43757.20	3.4290	3.4290	-1.2839	6.67	0.70	-0.750			
0.6875	44000.75	3.4260	3.4259	-1.2479	6.68	0.71	-0.750			
0.6912	44235.51	3.4230	3.4230	-1.2140	6.69	0.72	-0.750			
0.6948	44465.59	3.4200	3.4200	-1.1804	6.70	0.73	-0.750			
0.6983	44690.30	3.4170	3.4169	-1.1426	6.70	0.73	-0.750			
0.7016	44905.54	3.4140	3.4141	-1.1024	6.71	0.74	-0.750			
0.7049	45114.80	3.4110	3.4110	-1.0780	6.72	0.75	-0.750			
0.7081	45317.65	3.4080	3.4079	-1.0437	6.74	0.77	-0.750			
0.7111	45513.33	3.4050	3.4049	-1.0171	6.75	0.78	-0.750			
0.7141	45704.00	3.4020	3.4020	-0.9877	6.77	0.80	-0.750			
0.7171	45892.58	3.3990	3.3990	-0.9651	6.78	0.81	-0.750			
0.7200	46077.37	3.3960	3.3960	-0.9384	6.79	0.82	-0.750			
0.7227	46255.63	3.3930	3.3930	-0.9081	6.80	0.83	-0.750			
0.7254	46426.01	3.3900	3.3899	-0.8743	6.81	0.84	-0.750			
0.7280	46592.06	3.3870	3.3870	-0.8437	6.83	0.86	-0.750			
0.7304	46747.15	3.3840	3.3840	-0.8244	6.84	0.87	-0.750			
0.7329	46903.12	3.3810	3.3810	-0.7980	6.85	0.88	-0.750			
0.7352	47052.99	3.3780	3.3779	-0.7687	6.86	0.89	-0.750			
0.7375	47199.83	3.3750	3.3749	-0.7482	6.87	0.90	-0.750			
0.7397	47342.35	3.3720	3.3724	-0.7138	6.88	0.91	-0.750			
0.7418	47473.94	3.3690	3.3690	-0.6502	6.89	0.92	-0.750			
