Ah_balance (normalized)	Ah_balance (mAh)	Voltage - fit (V)	Voltage -  interpolate (V)	dQ/dV (1/V)	Temperature (°C)	Temperature - diff (°C)	Current (C)	R_DC 0ms (mOhm)	R_DC 50ms (mOhm)	R_DC 50 ms PEC (mOhm)
0.0945	6049.35	4.0070	4.0060	-0.0423	5.98	0.01	-0.750			
0.0947	6060.44	4.0040	4.0036	-0.0720	5.98	0.01	-0.750			
0.0950	6077.03	4.0010	4.0008	-0.1008	5.98	0.01	-0.750			
0.0953	6100.04	3.9980	3.9980	-0.1268	5.98	0.01	-0.750			
0.0957	6126.75	3.9950	3.9950	-0.1538	5.98	0.01	-0.750			
0.0962	6158.96	3.9920	3.9923	-0.1788	5.98	0.01	-0.750			
0.0968	6195.69	3.9890	3.9889	-0.2036	5.98	0.01	-0.750			
0.0975	6237.95	3.9860	3.9862	-0.2280	5.98	0.01	-0.750			
0.0982	6284.88	3.9830	3.9829	-0.2479	5.98	0.01	-0.750			
0.0990	6334.20	3.9800	3.9800	-0.2713	5.98	0.01	-0.750			
0.0998	6388.99	3.9770	3.9771	-0.2926	5.97	0.00	-0.750			
0.1007	6446.77	3.9740	3.9740	-0.3125	5.97	0.00	-0.750			
0.1017	6509.23	3.9710	3.9708	-0.3325	5.97	0.00	-0.750			
0.1027	6574.48	3.9680	3.9681	-0.3544	5.97	-0.00	-0.750			
0.1038	6644.25	3.9650	3.9650	-0.3782	5.97	-0.00	-0.750			
0.1050	6719.87	3.9620	3.9620	-0.3982	5.97	-0.00	-0.750			
0.1062	6798.10	3.9590	3.9589	-0.4158	5.96	-0.01	-0.750			
0.1075	6880.46	3.9560	3.9562	-0.4368	5.96	-0.01	-0.750			
0.1088	6965.65	3.9530	3.9531	-0.4567	5.96	-0.01	-0.750			
0.1102	7055.93	3.9500	3.9499	-0.4724	5.96	-0.01	-0.750			
0.1117	7147.41	3.9470	3.9470	-0.4848	5.95	-0.02	-0.750			
0.1131	7241.48	3.9440	3.9439	-0.5043	5.95	-0.02	-0.750			
0.1147	7341.49	3.9410	3.9414	-0.5241	5.95	-0.02	-0.750			
0.1163	7443.53	3.9380	3.9377	-0.5393	5.95	-0.02	-0.750			
0.1180	7549.71	3.9350	3.9350	-0.5520	5.95	-0.02	-0.750			
0.1197	7658.12	3.9320	3.9321	-0.5629	5.95	-0.02	-0.750			
0.1214	7767.94	3.9290	3.9289	-0.5818	5.95	-0.02	-0.750			
0.1231	7880.88	3.9260	3.9260	-0.5888	5.95	-0.02	-0.750			
0.1249	7992.59	3.9230	3.9228	-0.5924	5.95	-0.02	-0.750			
0.1267	8107.55	3.9200	3.9200	-0.6018	5.95	-0.02	-0.750			
0.1285	8223.76	3.9170	3.9171	-0.6133	5.95	-0.02	-0.750			
0.1304	8343.24	3.9140	3.9138	-0.6210	5.95	-0.02	-0.750			
0.1322	8461.08	3.9110	3.9112	-0.6363	5.95	-0.02	-0.750			
0.1341	8584.51	3.9080	3.9080	-0.6432	5.95	-0.02	-0.750			
0.1361	8713.26	3.9050	3.9050	-0.6515	5.95	-0.02	-0.750			
0.1381	8840.13	3.9020	3.9019	-0.6509	5.95	-0.02	-0.750			
0.1401	8965.22	3.8990	3.8993	-0.6513	5.95	-0.02	-0.750			
0.1420	9088.40	3.8960	3.8960	-0.6531	5.95	-0.02	-0.750			
0.1439	9212.40	3.8930	3.8930	-0.6583	5.96	-0.01	-0.750			
0.1459	9337.42	3.8900	3.8901	-0.6645	5.96	-0.01	-0.750			
0.1480	9469.66	3.8870	3.8869	-0.6724	5.96	-0.01	-0.750			
0.1500	9599.90	3.8840	3.8840	-0.6677	5.97	-0.00	-0.750			
0.1520	9728.48	3.8810	3.8812	-0.6747	5.97	-0.00	-0.750			
0.1540	9857.14	3.8780	3.8779	-0.6765	5.97	0.00	-0.750			
0.1560	9984.53	3.8750	3.8747	-0.6773	5.98	0.01	-0.750			
0.1581	10115.94	3.8720	3.8720	-0.6840	5.98	0.01	-0.750			
0.1601	10247.17	3.8690	3.8692	-0.6913	5.98	0.01	-0.750			
0.1623	10385.67	3.8660	3.8659	-0.6967	5.99	0.02	-0.750			
0.1644	10519.23	3.8630	3.8630	-0.6937	5.99	0.02	-0.750			
0.1664	10649.26	3.8600	3.8600	-0.6881	5.99	0.02	-0.750			
0.1685	10781.58	3.8570	3.8569	-0.6930	6.00	0.03	-0.750			
0.1705	10914.39	3.8540	3.8540	-0.6947	6.00	0.03	-0.750			
0.1726	11048.36	3.8510	3.8510	-0.6975	6.00	0.03	-0.750			
0.1747	11183.89	3.8480	3.8480	-0.6958	6.01	0.04	-0.750			
0.1769	11318.53	3.8450	3.8452	-0.6976	6.01	0.04	-0.750			
0.1789	11449.88	3.8420	3.8420	-0.6990	6.01	0.04	-0.750			
0.1810	11584.34	3.8390	3.8386	-0.6997	6.02	0.05	-0.750			
0.1831	11717.71	3.8360	3.8361	-0.7007	6.02	0.05	-0.750			
0.1852	11853.39	3.8330	3.8330	-0.7047	6.02	0.05	-0.750			
0.1874	11993.04	3.8300	3.8301	-0.7050	6.03	0.06	-0.750			
0.1895	12129.09	3.8270	3.8271	-0.7016	6.03	0.06	-0.750			
0.1916	12259.96	3.8240	3.8240	-0.7007	6.03	0.06	-0.750			
0.1937	12393.79	3.8210	3.8209	-0.7001	6.04	0.07	-0.750			
0.1957	12526.61	3.8180	3.8179	-0.7112	6.04	0.07	-0.750			
0.1979	12665.14	3.8150	3.8150	-0.7132	6.04	0.07	-0.750			
0.2001	12806.10	3.8120	3.8119	-0.7179	6.05	0.08	-0.750			
0.2023	12945.42	3.8090	3.8094	-0.7188	6.05	0.08	-0.750			
0.2044	13084.10	3.8060	3.8060	-0.7140	6.06	0.09	-0.750			
0.2065	13216.90	3.8030	3.8029	-0.7208	6.06	0.09	-0.750			
0.2087	13355.81	3.8000	3.8000	-0.7142	6.07	0.10	-0.750			
0.2108	13493.95	3.7970	3.7968	-0.7147	6.08	0.11	-0.750			
0.2130	13630.87	3.7940	3.7939	-0.7157	6.08	0.11	-0.750			
0.2151	13769.38	3.7910	3.7913	-0.7170	6.09	0.12	-0.750			
0.2173	13906.25	3.7880	3.7879	-0.7121	6.10	0.13	-0.750			
0.2194	14042.09	3.7850	3.7850	-0.7140	6.10	0.13	-0.750			
0.2215	14174.80	3.7820	3.7821	-0.7119	6.11	0.14	-0.750			
0.2237	14317.82	3.7790	3.7789	-0.7302	6.12	0.15	-0.750			
0.2259	14458.43	3.7760	3.7760	-0.7312	6.13	0.16	-0.750			
0.2281	14598.78	3.7730	3.7731	-0.7318	6.13	0.16	-0.750			
0.2303	14736.69	3.7700	3.7702	-0.7477	6.13	0.16	-0.750			
0.2325	14882.35	3.7670	3.7669	-0.7489	6.14	0.17	-0.750			
0.2348	15027.65	3.7640	3.7639	-0.7470	6.14	0.17	-0.750			
0.2371	15171.33	3.7610	3.7609	-0.7480	6.15	0.18	-0.750			
0.2393	15316.42	3.7580	3.7581	-0.7534	6.15	0.18	-0.750			
0.2416	15460.44	3.7550	3.7550	-0.7559	6.16	0.19	-0.750			
0.2438	15604.70	3.7520	3.7519	-0.7547	6.16	0.19	-0.750			
0.2461	15749.68	3.7490	3.7490	-0.7574	6.17	0.20	-0.750			
0.2484	15896.45	3.7460	3.7459	-0.7664	6.18	0.21	-0.750			
0.2507	16043.83	3.7430	3.7430	-0.7708	6.18	0.21	-0.750			
0.2530	16192.52	3.7400	3.7396	-0.7698	6.19	0.22	-0.750			
0.2553	16337.72	3.7370	3.7371	-0.7767	6.19	0.22	-0.750			
0.2576	16487.17	3.7340	3.7340	-0.7834	6.19	0.22	-0.750			
0.2599	16636.70	3.7310	3.7311	-0.7862	6.20	0.23	-0.750			
0.2624	16793.33	3.7280	3.7277	-0.8022	6.20	0.23	-0.750			
0.2648	16947.13	3.7250	3.7255	-0.7996	6.20	0.23	-0.750			
0.2672	17100.93	3.7220	3.7221	-0.8037	6.21	0.24	-0.750			
0.2696	17255.29	3.7190	3.7190	-0.8177	6.21	0.24	-0.750			
0.2721	17411.48	3.7160	3.7159	-0.8200	6.22	0.25	-0.750			
0.2745	17568.95	3.7130	3.7128	-0.8275	6.22	0.25	-0.750			
0.2770	17728.46	3.7100	3.7103	-0.8351	6.23	0.26	-0.750			
0.2796	17891.91	3.7070	3.7069	-0.8436	6.23	0.26	-0.750			
0.2821	18055.40	3.7040	3.7040	-0.8603	6.24	0.27	-0.750			
0.2847	18222.47	3.7010	3.7009	-0.8528	6.24	0.27	-0.750			
0.2873	18388.49	3.6980	3.6980	-0.8565	6.25	0.28	-0.750			
0.2899	18552.49	3.6950	3.6956	-0.8564	6.25	0.28	-0.750			
0.2924	18714.88	3.6920	3.6918	-0.8556	6.25	0.28	-0.750			
0.2950	18877.20	3.6890	3.6889	-0.8644	6.25	0.28	-0.750			
0.2975	19042.60	3.6860	3.6860	-0.8697	6.26	0.29	-0.750			
0.3002	19212.43	3.6830	3.6829	-0.8820	6.26	0.29	-0.750			
0.3029	19382.72	3.6800	3.6802	-0.8971	6.26	0.29	-0.750			
0.3056	19556.69	3.6770	3.6769	-0.9039	6.26	0.29	-0.750			
0.3083	19732.04	3.6740	3.6739	-0.9025	6.26	0.29	-0.750			
0.3110	19905.72	3.6710	3.6710	-0.8939	6.27	0.30	-0.750			
0.3137	20078.25	3.6680	3.6683	-0.9017	6.27	0.30	-0.750			
0.3163	20246.24	3.6650	3.6650	-0.9270	6.27	0.30	-0.750			
0.3191	20422.02	3.6620	3.6617	-0.9373	6.28	0.31	-0.750			
0.3219	20602.92	3.6590	3.6588	-0.9537	6.28	0.31	-0.750			
0.3249	20790.95	3.6560	3.6559	-0.9653	6.29	0.32	-0.750			
0.3279	20987.20	3.6530	3.6533	-0.9863	6.29	0.32	-0.750			
0.3309	21178.05	3.6500	3.6500	-0.9875	6.30	0.33	-0.750			
0.3338	21362.52	3.6470	3.6470	-0.9769	6.30	0.33	-0.750			
0.3366	21544.53	3.6440	3.6440	-0.9637	6.31	0.34	-0.750			
0.3396	21734.37	3.6410	3.6412	-0.9839	6.31	0.34	-0.750			
0.3425	21923.10	3.6380	3.6380	-1.0015	6.31	0.34	-0.750			
0.3456	22118.53	3.6350	3.6349	-1.0087	6.31	0.34	-0.750			
0.3487	22314.73	3.6320	3.6319	-1.0138	6.31	0.34	-0.750			
0.3517	22511.13	3.6290	3.6290	-1.0216	6.31	0.34	-0.750			
0.3547	22703.72	3.6260	3.6259	-1.0723	6.31	0.34	-0.750			
0.3580	22912.71	3.6230	3.6228	-1.0911	6.32	0.35	-0.750			
0.3613	23125.22	3.6200	3.6196	-1.1136	6.32	0.35	-0.750			
0.3648	23348.64	3.6170	3.6177	-1.1401	6.33	0.36	-0.750			
0.3683	23573.95	3.6140	3.6141	-1.1322	6.33	0.36	-0.750			
0.3717	23791.69	3.6110	3.6109	-1.1132	6.33	0.36	-0.750			
0.3750	23997.48	3.6080	3.6079	-1.0987	6.33	0.36	-0.750			
0.3781	24200.37	3.6050	3.6052	-1.0977	6.33	0.36	-0.750			
0.3815	24413.11	3.6020	3.6019	-1.1036	6.34	0.37	-0.750			
0.3848	24625.97	3.5990	3.5989	-1.1044	6.34	0.37	-0.750			
0.3881	24838.42	3.5960	3.5960	-1.1097	6.35	0.38	-0.750			
0.3915	25056.02	3.5930	3.5931	-1.1435	6.35	0.38	-0.750			
0.3950	25279.97	3.5900	3.5898	-1.1450	6.35	0.38	-0.750			
0.3984	25499.20	3.5870	3.5868	-1.1439	6.36	0.39	-0.750			
0.4018	25717.46	3.5840	3.5837	-1.1469	6.36	0.39	-0.750	0.481	1.061	
0.4053	25940.96	3.5810	3.5810	-1.1562	6.36	0.39	-0.750			
0.4088	26163.42	3.5780	3.5778	-1.1604	6.37	0.40	-0.750			
0.4122	26382.58	3.5750	3.5749	-1.1630	6.37	0.40	-0.750			
0.4158	26608.35	3.5720	3.5721	-1.1789	6.37	0.40	-0.750			
0.4193	26836.64	3.5690	3.5689	-1.1956	6.38	0.41	-0.750			
0.4229	27067.09	3.5660	3.5660	-1.2055	6.38	0.41	-0.750			
0.4265	27297.54	3.5630	3.5631	-1.2262	6.39	0.42	-0.750			
0.4303	27539.46	3.5600	3.5600	-1.2425	6.39	0.42	-0.750			
0.4341	27780.72	3.5570	3.5567	-1.2494	6.39	0.42	-0.750			
0.4378	28019.55	3.5540	3.5539	-1.2629	6.39	0.42	-0.750			
0.4416	28262.96	3.5510	3.5510	-1.2667	6.39	0.42	-0.750			
0.4454	28505.14	3.5480	3.5479	-1.2740	6.40	0.43	-0.750			
0.4492	28750.64	3.5450	3.5449	-1.2859	6.41	0.44	-0.750			
0.4532	29002.20	3.5420	3.5422	-1.3172	6.41	0.44	-0.750			
0.4571	29257.55	3.5390	3.5389	-1.3306	6.41	0.44	-0.750			
0.4611	29510.14	3.5360	3.5360	-1.3446	6.41	0.44	-0.750			
0.4652	29770.27	3.5330	3.5333	-1.3470	6.41	0.44	-0.750			
0.4693	30034.89	3.5300	3.5296	-1.3535	6.42	0.45	-0.750			
0.4733	30293.90	3.5270	3.5270	-1.3486	6.42	0.45	-0.750			
0.4774	30552.84	3.5240	3.5244	-1.3592	6.43	0.46	-0.750			
0.4815	30818.93	3.5210	3.5209	-1.3728	6.43	0.46	-0.750			
0.4856	31077.23	3.5180	3.5179	-1.3477	6.43	0.46	-0.750			
0.4896	31337.52	3.5150	3.5154	-1.3748	6.43	0.46	-0.750			
0.4938	31604.04	3.5120	3.5119	-1.3952	6.44	0.47	-0.750			
0.4980	31872.32	3.5090	3.5089	-1.4016	6.44	0.47	-0.750			
0.5022	32142.24	3.5060	3.5065	-1.4096	6.45	0.48	-0.750			
0.5065	32417.91	3.5030	3.5030	-1.4340	6.46	0.49	-0.750			
0.5109	32695.92	3.5000	3.4999	-1.4254	6.46	0.49	-0.750			
0.5152	32969.65	3.4970	3.4972	-1.4271	6.47	0.50	-0.750			
0.5194	33243.97	3.4940	3.4941	-1.4295	6.48	0.51	-0.750			
0.5236	33512.76	3.4910	3.4910	-1.4431	6.48	0.51	-0.750			
0.5280	33794.82	3.4880	3.4880	-1.4443	6.49	0.52	-0.750			
0.5324	34076.00	3.4850	3.4849	-1.4617	6.50	0.53	-0.750			
0.5368	34353.48	3.4820	3.4820	-1.4685	6.51	0.54	-0.750			
0.5411	34628.83	3.4790	3.4790	-1.5193	6.51	0.54	-0.750			
0.5456	34920.33	3.4760	3.4760	-1.5631	6.53	0.56	-0.750			
0.5502	35213.38	3.4730	3.4727	-1.6027	6.54	0.57	-0.750			
0.5552	35532.61	3.4700	3.4691	-1.6081	6.56	0.59	-0.750			
0.5602	35853.70	3.4670	3.4679	-1.6406	6.57	0.60	-0.750			
0.5652	36171.59	3.4640	3.4645	-1.5871	6.58	0.61	-0.750			
0.5701	36484.85	3.4610	3.4609	-1.5469	6.60	0.63	-0.750			
0.5745	36770.12	3.4580	3.4579	-1.5050	6.62	0.65	-0.750			
0.5787	37034.76	3.4550	3.4549	-1.4219	6.63	0.66	-0.750			
0.5830	37310.30	3.4520	3.4522	-1.4177	6.65	0.68	-0.750			
0.5872	37579.27	3.4490	3.4489	-1.4079	6.66	0.69	-0.750			
0.5914	37848.03	3.4460	3.4460	-1.3858	6.68	0.71	-0.750			
0.5955	38115.06	3.4430	3.4429	-1.3675	6.69	0.72	-0.750			
0.5996	38374.66	3.4400	3.4399	-1.3568	6.70	0.73	-0.750			
0.6036	38632.36	3.4370	3.4372	-1.3351	6.72	0.75	-0.750			
0.6076	38888.58	3.4340	3.4339	-1.3219	6.73	0.76	-0.750			
0.6115	39138.96	3.4310	3.4310	-1.2981	6.75	0.78	-0.750			
0.6154	39385.53	3.4280	3.4281	-1.2723	6.76	0.79	-0.750			
0.6193	39632.30	3.4250	3.4250	-1.2609	6.78	0.81	-0.750			
0.6230	39873.59	3.4220	3.4220	-1.2394	6.79	0.82	-0.750			
0.6267	40107.17	3.4190	3.4190	-1.2101	6.81	0.84	-0.750			
0.6303	40338.36	3.4160	3.4159	-1.1963	6.82	0.85	-0.750			
0.6339	40566.68	3.4130	3.4129	-1.1721	6.83	0.86	-0.750			
0.6374	40790.71	3.4100	3.4099	-1.1487	6.84	0.87	-0.750			
0.6408	41008.14	3.4070	3.4071	-1.1272	6.85	0.88	-0.750			
0.6441	41223.65	3.4040	3.4040	-1.1009	6.87	0.90	-0.750			
0.6474	41432.72	3.4010	3.4009	-1.0716	6.89	0.92	-0.750			
0.6505	41632.88	3.3980	3.3980	-1.0367	6.90	0.93	-0.750			
0.6536	41832.98	3.3950	3.3950	-1.0177	6.92	0.95	-0.750			
0.6566	42025.35	3.3920	3.3920	-0.9966	6.93	0.96	-0.750			
0.6596	42213.48	3.3890	3.3889	-0.9714	6.95	0.98	-0.750			
0.6624	42395.70	3.3860	3.3860	-0.9471	6.96	0.99	-0.750			
0.6653	42577.40	3.3830	3.3831	-0.9289	6.97	1.00	-0.750			
0.6680	42754.46	3.3800	3.3800	-0.9089	6.99	1.02	-0.750			
0.6707	42927.17	3.3770	3.3770	-0.8849	7.00	1.03	-0.750			
0.6733	43094.30	3.3740	3.3740	-0.8618	7.01	1.04	-0.750			
0.6759	43257.09	3.3710	3.3710	-0.8400	7.02	1.05	-0.750			
0.6784	43416.51	3.3680	3.3681	-0.8176	7.04	1.07	-0.750			
0.6808	43570.30	3.3650	3.3650	-0.7955	7.05	1.08	-0.750			
0.6831	43720.99	3.3620	3.3620	-0.7766	7.07	1.10	-0.750			
0.6854	43867.28	3.3590	3.3591	-0.7568	7.08	1.11	-0.750			
0.6877	44011.46	3.3560	3.3559	-0.7377	7.10	1.13	-0.750			
0.6899	44150.95	3.3530	3.3533	-0.7203	7.11	1.14	-0.750			
0.6920	44287.64	3.3500	3.3500	-0.7050	7.12	1.15	-0.750			
0.6941	44421.07	3.3470	3.3470	-0.6909	7.13	1.16	-0.750			
0.6961	44552.08	3.3440	3.3439	-0.6760	7.14	1.17	-0.750			
0.6981	44679.59	3.3410	3.3410	-0.6605	7.15	1.18	-0.750			
0.7001	44805.74	3.3380	3.3380	-0.6463	7.16	1.19	-0.750			
0.7020	44929.36	3.3350	3.3350	-0.6331	7.17	1.20	-0.750			
0.7039	45048.95	3.3320	3.3320	-0.6145	7.18	1.21	-0.750			
0.7057	45165.46	3.3290	3.3290	-0.5971	7.19	1.22	-0.750			
0.7075	45278.53	3.3260	3.3260	-0.5781	7.20	1.23	-0.750			
0.7092	45388.06	3.3230	3.3230	-0.5647	7.20	1.23	-0.750			
