Ah_balance (normalized)	Ah_balance (mAh)	Voltage - fit (V)	Voltage -  interpolate (V)	dQ/dV (1/V)	Temperature (°C)	Temperature - diff (°C)	Current (C)	R_DC 0ms (mOhm)	R_DC 50ms (mOhm)	R_DC 50 ms PEC (mOhm)
0.1843	11792.35	4.0810	4.0819	0.9632	7.09	1.11	0.750			
0.1869	11964.68	4.0780	4.0782	0.8504	7.09	1.11	0.750			
0.1894	12122.20	4.0750	4.0753	0.8082	7.08	1.10	0.750			
0.1917	12270.59	4.0720	4.0719	0.7826	7.08	1.10	0.750			
0.1940	12414.56	4.0690	4.0689	0.7593	7.08	1.10	0.750			
0.1962	12555.27	4.0660	4.0661	0.7606	7.07	1.09	0.750			
0.1985	12703.08	4.0630	4.0626	0.7763	7.07	1.09	0.750			
0.2009	12856.21	4.0600	4.0600	0.7858	7.07	1.09	0.750			
0.2033	13009.20	4.0570	4.0570	0.7822	7.06	1.08	0.750			
0.2056	13161.12	4.0540	4.0541	0.7931	7.06	1.08	0.750			
0.2080	13312.40	4.0510	4.0511	0.7967	7.06	1.08	0.750			
0.2104	13463.74	4.0480	4.0479	0.7959	7.05	1.07	0.750			
0.2128	13616.38	4.0450	4.0451	0.7976	7.05	1.07	0.750			
0.2152	13771.41	4.0420	4.0420	0.7979	7.04	1.06	0.750			
0.2176	13925.26	4.0390	4.0391	0.8050	7.04	1.06	0.750			
0.2200	14081.42	4.0360	4.0360	0.8108	7.04	1.06	0.750			
0.2224	14234.38	4.0330	4.0330	0.8090	7.03	1.05	0.750			
0.2248	14389.91	4.0300	4.0300	0.8150	7.03	1.05	0.750			
0.2274	14551.68	4.0270	4.0269	0.8115	7.02	1.04	0.750			
0.2298	14706.05	4.0240	4.0240	0.8152	7.02	1.04	0.750			
0.2322	14860.64	4.0210	4.0211	0.8242	7.02	1.04	0.750			
0.2347	15017.63	4.0180	4.0182	0.8235	7.01	1.03	0.750			
0.2371	15175.68	4.0150	4.0151	0.8270	7.01	1.03	0.750			
0.2396	15336.17	4.0120	4.0121	0.8306	7.00	1.02	0.750			
0.2421	15496.96	4.0090	4.0092	0.8379	7.00	1.02	0.750			
0.2447	15660.12	4.0060	4.0059	0.8405	6.99	1.01	0.750			
0.2472	15820.02	4.0030	4.0031	0.8381	6.98	1.00	0.750			
0.2497	15981.22	4.0000	4.0001	0.8408	6.98	1.00	0.750			
0.2523	16145.50	3.9970	3.9969	0.8421	6.97	0.99	0.750			
0.2548	16306.02	3.9940	3.9940	0.8483	6.97	0.99	0.750			
0.2573	16468.36	3.9910	3.9911	0.8519	6.96	0.98	0.750			
0.2599	16632.58	3.9880	3.9880	0.8569	6.95	0.97	0.750			
0.2625	16798.24	3.9850	3.9852	0.8634	6.95	0.97	0.750			
0.2651	16964.87	3.9820	3.9820	0.8592	6.94	0.96	0.750			
0.2677	17129.91	3.9790	3.9790	0.8684	6.94	0.96	0.750			
0.2703	17298.19	3.9760	3.9761	0.8730	6.94	0.96	0.750			
0.2729	17463.15	3.9730	3.9730	0.8770	6.93	0.95	0.750			
0.2755	17632.58	3.9700	3.9701	0.8811	6.93	0.95	0.750			
0.2782	17801.79	3.9670	3.9670	0.8848	6.92	0.94	0.750			
0.2808	17973.30	3.9640	3.9640	0.8882	6.91	0.93	0.750			
0.2835	18147.19	3.9610	3.9610	0.8932	6.91	0.93	0.750			
0.2862	18315.70	3.9580	3.9578	0.8889	6.90	0.92	0.750			
0.2889	18487.24	3.9550	3.9551	0.8928	6.89	0.91	0.750			
0.2915	18656.38	3.9520	3.9520	0.9018	6.89	0.91	0.750			
0.2942	18831.14	3.9490	3.9490	0.9101	6.88	0.90	0.750			
0.2970	19004.90	3.9460	3.9461	0.9103	6.87	0.89	0.750			
0.2997	19182.61	3.9430	3.9429	0.9234	6.87	0.89	0.750			
0.3025	19361.46	3.9400	3.9402	0.9235	6.86	0.88	0.750			
0.3053	19538.01	3.9370	3.9370	0.9335	6.85	0.87	0.750			
0.3081	19718.00	3.9340	3.9341	0.9389	6.85	0.87	0.750			
0.3109	19897.56	3.9310	3.9308	0.9452	6.84	0.86	0.750			
0.3138	20081.80	3.9280	3.9281	0.9506	6.83	0.85	0.750			
0.3166	20264.74	3.9250	3.9250	0.9600	6.82	0.84	0.750			
0.3195	20449.92	3.9220	3.9220	0.9696	6.81	0.83	0.750			
0.3224	20635.72	3.9190	3.9190	0.9713	6.80	0.82	0.750			
0.3254	20823.70	3.9160	3.9161	0.9754	6.80	0.82	0.750			
0.3283	21012.98	3.9130	3.9129	0.9925	6.79	0.81	0.750			
0.3313	21204.28	3.9100	3.9100	1.0005	6.78	0.80	0.750			
0.3343	21397.56	3.9070	3.9070	1.0054	6.77	0.79	0.750			
0.3374	21593.04	3.9040	3.9041	1.0096	6.77	0.79	0.750			
0.3404	21786.82	3.9010	3.9011	1.0222	6.76	0.78	0.750			
0.3435	21981.90	3.8980	3.8980	1.0326	6.76	0.78	0.750			
0.3466	22179.75	3.8950	3.8950	1.0493	6.75	0.77	0.750			
0.3497	22382.61	3.8920	3.8919	1.0584	6.75	0.77	0.750			
0.3529	22586.60	3.8890	3.8891	1.0769	6.74	0.76	0.750			
0.3562	22796.87	3.8860	3.8860	1.0940	6.73	0.75	0.750			
0.3595	23009.30	3.8830	3.8831	1.1081	6.72	0.74	0.750			
0.3629	23222.98	3.8800	3.8800	1.1188	6.70	0.72	0.750			
0.3662	23437.85	3.8770	3.8770	1.1319	6.69	0.71	0.750			
0.3696	23656.91	3.8740	3.8740	1.1469	6.68	0.70	0.750			
0.3731	23879.76	3.8710	3.8711	1.1636	6.67	0.69	0.750			
0.3766	24101.47	3.8680	3.8680	1.1616	6.67	0.69	0.750			
0.3801	24324.37	3.8650	3.8651	1.1832	6.66	0.68	0.750			
0.3836	24549.26	3.8620	3.8621	1.2091	6.65	0.67	0.750			
0.3873	24786.03	3.8590	3.8591	1.2212	6.65	0.67	0.750			
0.3910	25021.42	3.8560	3.8560	1.2411	6.63	0.65	0.750			
0.3947	25263.55	3.8530	3.8531	1.2643	6.62	0.64	0.750			
0.3986	25513.23	3.8500	3.8495	1.2647	6.61	0.63	0.750			
0.4023	25746.56	3.8470	3.8471	1.2926	6.60	0.62	0.750			
0.4062	25994.00	3.8440	3.8442	1.3341	6.59	0.61	0.750			
0.4102	26252.42	3.8410	3.8408	1.3705	6.57	0.59	0.750			
0.4144	26521.07	3.8380	3.8382	1.4244	6.56	0.58	0.750	0.385	0.948	
0.4187	26798.33	3.8350	3.8353	1.4483	6.55	0.57	0.750			
0.4233	27089.23	3.8320	3.8319	1.4850	6.54	0.56	0.750			
0.4278	27380.39	3.8290	3.8290	1.4764	6.53	0.55	0.750			
0.4320	27648.28	3.8260	3.8261	1.4955	6.52	0.54	0.750			
0.4366	27941.35	3.8230	3.8230	1.5324	6.51	0.53	0.750			
0.4413	28240.85	3.8200	3.8197	1.5429	6.49	0.51	0.750			
0.4460	28544.03	3.8170	3.8171	1.5694	6.48	0.50	0.750			
0.4507	28847.25	3.8140	3.8141	1.5990	6.46	0.48	0.750			
0.4555	29154.52	3.8110	3.8107	1.6343	6.44	0.46	0.750			
0.4604	29467.37	3.8080	3.8079	1.6353	6.42	0.44	0.750			
0.4654	29783.45	3.8050	3.8052	1.6985	6.40	0.42	0.750			
0.4706	30120.40	3.8020	3.8022	1.7349	6.38	0.40	0.750			
0.4759	30456.67	3.7990	3.7989	1.7621	6.37	0.39	0.750			
0.4811	30792.52	3.7960	3.7962	1.7987	6.36	0.38	0.750			
0.4865	31138.63	3.7930	3.7929	1.8235	6.35	0.37	0.750			
0.4922	31501.14	3.7900	3.7899	1.8498	6.34	0.36	0.750			
0.4977	31852.11	3.7870	3.7869	1.8838	6.32	0.34	0.750			
0.5034	32217.54	3.7840	3.7840	1.8874	6.30	0.32	0.750			
0.5091	32581.10	3.7810	3.7810	1.9416	6.28	0.30	0.750			
0.5151	32964.11	3.7780	3.7780	1.9732	6.26	0.28	0.750			
0.5211	33351.91	3.7750	3.7750	1.9950	6.25	0.27	0.750			
0.5270	33731.15	3.7720	3.7722	2.0021	6.23	0.25	0.750			
0.5331	34119.23	3.7690	3.7692	2.0242	6.20	0.22	0.750			
0.5390	34497.25	3.7660	3.7660	2.0347	6.19	0.21	0.750			
0.5453	34897.09	3.7630	3.7629	2.0759	6.18	0.20	0.750			
0.5516	35301.22	3.7600	3.7601	2.1037	6.16	0.18	0.750			
0.5578	35699.53	3.7570	3.7570	2.1002	6.14	0.16	0.750			
0.5640	36096.07	3.7540	3.7539	2.1606	6.12	0.14	0.750			
0.5706	36515.48	3.7510	3.7509	2.2577	6.10	0.12	0.750			
0.5776	36963.91	3.7480	3.7480	2.2796	6.08	0.10	0.750			
0.5845	37411.09	3.7450	3.7451	2.3614	6.06	0.08	0.750			
0.5915	37857.54	3.7420	3.7418	2.3966	6.04	0.06	0.750			
0.5989	38326.45	3.7390	3.7390	2.4648	6.03	0.05	0.750			
0.6065	38813.51	3.7360	3.7360	2.5311	6.01	0.03	0.750			
0.6141	39303.73	3.7330	3.7330	2.4983	5.99	0.01	0.750			
0.6215	39776.33	3.7300	3.7300	2.5420	5.97	-0.01	0.750			
0.6290	40253.58	3.7270	3.7268	2.6171	5.95	-0.03	0.750			
0.6372	40779.05	3.7240	3.7238	2.6096	5.93	-0.05	0.750			
0.6451	41289.53	3.7210	3.7214	2.5415	5.93	-0.05	0.750			
0.6525	41761.08	3.7180	3.7178	2.3459	5.92	-0.06	0.750			
0.6590	42175.52	3.7150	3.7153	2.1172	5.91	-0.07	0.750			
0.6653	42576.74	3.7120	3.7117	1.9886	5.91	-0.07	0.750			
0.6710	42941.98	3.7090	3.7092	1.7860	5.91	-0.07	0.750			
0.6760	43265.03	3.7060	3.7059	1.6012	5.91	-0.07	0.750			
0.6805	43549.41	3.7030	3.7032	1.4107	5.91	-0.07	0.750			
0.6842	43789.15	3.7000	3.7001	1.2471	5.91	-0.07	0.750			
0.6876	44008.23	3.6970	3.6969	1.1226	5.91	-0.07	0.750			
0.6907	44205.70	3.6940	3.6942	1.0316	5.91	-0.07	0.750			
0.6936	44387.34	3.6910	3.6910	0.9594	5.91	-0.07	0.750			
0.6963	44565.77	3.6880	3.6880	0.9136	5.91	-0.07	0.750			
0.6990	44733.86	3.6850	3.6848	0.8617	5.91	-0.07	0.750			
0.7015	44895.29	3.6820	3.6821	0.8265	5.92	-0.06	0.750			
0.7039	45051.23	3.6790	3.6790	0.7869	5.93	-0.05	0.750			
0.7062	45199.14	3.6760	3.6760	0.7515	5.93	-0.05	0.750			
0.7084	45338.49	3.6730	3.6730	0.7074	5.94	-0.04	0.750			
0.7105	45471.80	3.6700	3.6699	0.6676	5.95	-0.03	0.750			
0.7125	45596.90	3.6670	3.6671	0.6276	5.95	-0.03	0.750			
0.7143	45713.00	3.6640	3.6640	0.5867	5.96	-0.02	0.750			
0.7159	45820.72	3.6610	3.6610	0.5460	5.96	-0.02	0.750			
0.7175	45922.17	3.6580	3.6579	0.5056	5.97	-0.01	0.750			
0.7190	46014.15	3.6550	3.6549	0.4641	5.97	-0.01	0.750			
0.7203	46099.88	3.6520	3.6521	0.4269	5.97	-0.01	0.750			
0.7215	46178.31	3.6490	3.6490	0.3907	5.97	-0.01	0.750			
0.7226	46249.44	3.6460	3.6459	0.3528	5.98	-0.00	0.750			
0.7236	46313.57	3.6430	3.6426	0.3163	5.98	-0.00	0.750			
0.7245	46369.90	3.6400	3.6401	0.2801	5.98	0.00	0.750			
0.7253	46421.48	3.6370	3.6370	0.2452	5.98	0.00	0.750			
0.7260	46465.26	3.6340	3.6338	0.2088	5.99	0.01	0.750			
0.7266	46501.93	3.6310	3.6310	0.1716	5.99	0.01	0.750			
0.7270	46530.91	3.6280	3.6282	0.1337	5.99	0.01	0.750			
0.7274	46554.22	3.6250	3.6254	0.0962	5.99	0.01	0.750			
0.7276	46568.85	3.6220	3.6228	0.0563	5.99	0.01	0.750			
0.7277	46575.98	3.6190	3.6203	0.0088	5.99	0.01	0.750			
