Ah_balance (normalized)	Ah_balance (mAh)	Voltage - fit (V)	Voltage -  interpolate (V)	dQ/dV (1/V)	Temperature (°C)	Temperature - diff (°C)	Current (C)	R_DC 0ms (mOhm)	R_DC 50ms (mOhm)	R_DC 50 ms PEC (mOhm)
0.1771	11334.61	4.0810	4.0811	0.7572	7.61	1.62	0.750			
0.1794	11480.73	4.0780	4.0779	0.7639	7.60	1.61	0.750			
0.1817	11628.14	4.0750	4.0748	0.7679	7.59	1.60	0.750			
0.1840	11776.10	4.0720	4.0722	0.7714	7.58	1.59	0.750			
0.1863	11924.68	4.0690	4.0690	0.7644	7.58	1.59	0.750			
0.1887	12074.64	4.0660	4.0659	0.7684	7.57	1.58	0.750			
0.1909	12218.94	4.0630	4.0632	0.7687	7.56	1.57	0.750			
0.1932	12366.51	4.0600	4.0600	0.7717	7.56	1.57	0.750			
0.1956	12516.11	4.0570	4.0571	0.7764	7.55	1.56	0.750			
0.1979	12665.71	4.0540	4.0541	0.7826	7.54	1.55	0.750			
0.2003	12817.37	4.0510	4.0510	0.7815	7.54	1.55	0.750			
0.2026	12967.11	4.0480	4.0480	0.7887	7.53	1.54	0.750			
0.2050	13117.27	4.0450	4.0451	0.7880	7.53	1.54	0.750			
0.2073	13267.58	4.0420	4.0417	0.7947	7.52	1.53	0.750			
0.2097	13421.68	4.0390	4.0391	0.8043	7.51	1.52	0.750			
0.2121	13576.46	4.0360	4.0361	0.8097	7.51	1.52	0.750			
0.2146	13733.45	4.0330	4.0330	0.8177	7.50	1.51	0.750			
0.2170	13891.06	4.0300	4.0301	0.8215	7.50	1.51	0.750			
0.2195	14049.74	4.0270	4.0268	0.8234	7.49	1.50	0.750			
0.2220	14209.17	4.0240	4.0241	0.8260	7.48	1.49	0.750			
0.2245	14369.81	4.0210	4.0210	0.8122	7.47	1.48	0.750			
0.2270	14525.50	4.0180	4.0181	0.8159	7.47	1.48	0.750			
0.2294	14680.00	4.0150	4.0150	0.8191	7.46	1.47	0.750			
0.2318	14834.86	4.0120	4.0118	0.8196	7.45	1.46	0.750			
0.2343	14992.36	4.0090	4.0091	0.8250	7.44	1.45	0.750			
0.2368	15153.00	4.0060	4.0060	0.8253	7.44	1.45	0.750			
0.2392	15311.17	4.0030	4.0031	0.8329	7.43	1.44	0.750			
0.2418	15474.31	4.0000	4.0000	0.8389	7.42	1.43	0.750			
0.2442	15631.67	3.9970	3.9967	0.8420	7.41	1.42	0.750			
0.2468	15793.30	3.9940	3.9940	0.8494	7.40	1.41	0.750			
0.2493	15957.34	3.9910	3.9910	0.8558	7.40	1.41	0.750			
0.2519	16123.54	3.9880	3.9880	0.8618	7.39	1.40	0.750			
0.2546	16292.45	3.9850	3.9850	0.8694	7.38	1.39	0.750			
0.2572	16457.66	3.9820	3.9820	0.8684	7.37	1.38	0.750			
0.2598	16625.69	3.9790	3.9790	0.8697	7.37	1.38	0.750			
0.2624	16791.44	3.9760	3.9760	0.8644	7.36	1.37	0.750			
0.2649	16956.16	3.9730	3.9731	0.8666	7.36	1.37	0.750			
0.2675	17122.16	3.9700	3.9701	0.8705	7.35	1.36	0.750			
0.2701	17288.92	3.9670	3.9669	0.8763	7.35	1.36	0.750			
0.2728	17458.90	3.9640	3.9640	0.8747	7.34	1.35	0.750			
0.2754	17626.79	3.9610	3.9611	0.8827	7.33	1.34	0.750			
0.2781	17798.21	3.9580	3.9581	0.8967	7.32	1.33	0.750			
0.2808	17969.30	3.9550	3.9550	0.8985	7.31	1.32	0.750			
0.2835	18142.68	3.9520	3.9520	0.9123	7.31	1.32	0.750			
0.2862	18319.35	3.9490	3.9491	0.9163	7.30	1.31	0.750			
0.2890	18496.54	3.9460	3.9459	0.9212	7.29	1.30	0.750			
0.2918	18677.05	3.9430	3.9430	0.9266	7.28	1.29	0.750			
0.2946	18853.44	3.9400	3.9402	0.9235	7.27	1.28	0.750			
0.2974	19030.66	3.9370	3.9369	0.9195	7.26	1.27	0.750			
0.3001	19206.97	3.9340	3.9341	0.9287	7.25	1.26	0.750			
0.3029	19385.25	3.9310	3.9310	0.9359	7.24	1.25	0.750			
0.3057	19567.12	3.9280	3.9280	0.9496	7.23	1.24	0.750			
0.3086	19751.68	3.9250	3.9251	0.9499	7.23	1.24	0.750			
0.3115	19935.05	3.9220	3.9220	0.9593	7.22	1.23	0.750			
0.3144	20119.10	3.9190	3.9190	0.9647	7.21	1.22	0.750			
0.3172	20302.10	3.9160	3.9161	0.9804	7.20	1.21	0.750			
0.3202	20489.67	3.9130	3.9129	0.9912	7.19	1.20	0.750			
0.3232	20681.97	3.9100	3.9099	0.9988	7.18	1.19	0.750			
0.3262	20873.82	3.9070	3.9071	1.0192	7.17	1.18	0.750			
0.3293	21073.97	3.9040	3.9041	1.0277	7.16	1.17	0.750			
0.3324	21271.48	3.9010	3.9008	1.0443	7.15	1.16	0.750			
0.3355	21474.87	3.8980	3.8981	1.0461	7.14	1.15	0.750			
0.3387	21676.84	3.8950	3.8950	1.0460	7.13	1.14	0.750			
0.3419	21879.16	3.8920	3.8921	1.0569	7.12	1.13	0.750			
0.3450	22081.69	3.8890	3.8889	1.0700	7.11	1.12	0.750			
0.3482	22281.84	3.8860	3.8860	1.0628	7.10	1.11	0.750			
0.3514	22486.71	3.8830	3.8830	1.0841	7.09	1.10	0.750			
0.3546	22693.23	3.8800	3.8802	1.0961	7.08	1.09	0.750			
0.3580	22911.19	3.8770	3.8766	1.1107	7.07	1.08	0.750			
0.3613	23125.77	3.8740	3.8742	1.1300	7.06	1.07	0.750			
0.3647	23341.56	3.8710	3.8712	1.1497	7.05	1.06	0.750			
0.3682	23565.78	3.8680	3.8680	1.1627	7.04	1.05	0.750			
0.3717	23789.45	3.8650	3.8650	1.1556	7.02	1.03	0.750			
0.3752	24009.72	3.8620	3.8622	1.1775	7.01	1.02	0.750			
0.3788	24241.47	3.8590	3.8592	1.1821	7.00	1.01	0.750			
0.3823	24468.93	3.8560	3.8554	1.2294	6.99	1.00	0.750			
0.3860	24705.17	3.8530	3.8532	1.2098	6.98	0.99	0.750			
0.3897	24938.01	3.8500	3.8502	1.2250	6.97	0.98	0.750			
0.3934	25176.92	3.8470	3.8475	1.2488	6.95	0.96	0.750			
0.3971	25415.45	3.8440	3.8438	1.2890	6.94	0.95	0.750			
0.4009	25658.61	3.8410	3.8409	1.2902	6.93	0.94	0.750			
0.4049	25914.80	3.8380	3.8383	1.3199	6.91	0.92	0.750	0.338	0.834	
0.4088	26161.21	3.8350	3.8353	1.4200	6.89	0.90	0.750			
0.4131	26435.28	3.8320	3.8323	1.4851	6.88	0.89	0.750			
0.4176	26723.71	3.8290	3.8289	1.4318	6.86	0.87	0.750			
0.4218	26998.05	3.8260	3.8260	1.4408	6.84	0.85	0.750			
0.4262	27276.18	3.8230	3.8239	1.4400	6.83	0.84	0.750			
0.4306	27559.50	3.8200	3.8201	1.4720	6.82	0.83	0.750			
0.4348	27825.30	3.8170	3.8173	1.4846	6.80	0.81	0.750			
0.4394	28124.72	3.8140	3.8143	1.5921	6.79	0.80	0.750			
0.4442	28429.80	3.8110	3.8112	1.6074	6.77	0.78	0.750			
0.4492	28749.23	3.8080	3.8076	1.6221	6.75	0.76	0.750			
0.4541	29061.20	3.8050	3.8053	1.6089	6.73	0.74	0.750			
0.4590	29373.06	3.8020	3.8022	1.6077	6.70	0.71	0.750			
0.4639	29687.91	3.7990	3.7994	1.6581	6.69	0.70	0.750			
0.4688	30003.69	3.7960	3.7962	1.6907	6.67	0.68	0.750			
0.4740	30336.96	3.7930	3.7924	1.7408	6.65	0.66	0.750			
0.4793	30674.80	3.7900	3.7897	1.8050	6.62	0.63	0.750			
0.4848	31029.93	3.7870	3.7869	1.8020	6.60	0.61	0.750			
0.4903	31376.10	3.7840	3.7840	1.8187	6.58	0.59	0.750			
0.4957	31726.76	3.7810	3.7811	1.7888	6.57	0.58	0.750			
0.5009	32060.72	3.7780	3.7781	1.8273	6.55	0.56	0.750			
0.5067	32428.39	3.7750	3.7748	1.8372	6.53	0.54	0.750			
0.5125	32799.62	3.7720	3.7724	1.8790	6.50	0.51	0.750			
0.5181	33155.89	3.7690	3.7693	1.8915	6.48	0.49	0.750			
0.5237	33516.51	3.7660	3.7659	1.9381	6.46	0.47	0.750			
0.5295	33885.11	3.7630	3.7634	1.9894	6.44	0.45	0.750			
0.5356	34276.50	3.7600	3.7601	2.0101	6.42	0.43	0.750			
0.5415	34655.57	3.7570	3.7572	2.0090	6.40	0.41	0.750			
0.5474	35032.48	3.7540	3.7540	2.0651	6.38	0.39	0.750			
0.5537	35437.20	3.7510	3.7506	2.0230	6.35	0.36	0.750			
0.5598	35828.95	3.7480	3.7477	2.0983	6.32	0.33	0.750			
0.5658	36209.55	3.7450	3.7449	2.0979	6.30	0.31	0.750			
0.5721	36616.45	3.7420	3.7418	2.1836	6.27	0.28	0.750			
0.5794	37078.91	3.7390	3.7392	2.4133	6.24	0.25	0.750			
0.5862	37517.25	3.7360	3.7359	2.3358	6.22	0.23	0.750			
0.5930	37951.26	3.7330	3.7335	2.3397	6.20	0.21	0.750			
0.6000	38399.39	3.7300	3.7299	2.3877	6.17	0.18	0.750			
0.6072	38860.03	3.7270	3.7270	2.4413	6.14	0.15	0.750			
0.6145	39324.81	3.7240	3.7244	2.4203	6.12	0.13	0.750			
0.6220	39807.83	3.7210	3.7209	2.3621	6.09	0.10	0.750			
0.6288	40244.37	3.7180	3.7183	2.2050	6.08	0.09	0.750			
0.6355	40673.75	3.7150	3.7147	2.0868	6.06	0.07	0.750			
0.6415	41056.57	3.7120	3.7124	1.9551	6.04	0.05	0.750			
0.6470	41409.60	3.7090	3.7091	1.7285	6.03	0.04	0.750			
0.6520	41730.54	3.7060	3.7061	1.5653	6.02	0.03	0.750			
0.6565	42018.94	3.7030	3.7030	1.4220	6.01	0.02	0.750			
0.6606	42278.95	3.7000	3.7001	1.2906	6.00	0.01	0.750			
0.6641	42499.32	3.6970	3.6974	1.1650	6.00	0.01	0.750			
0.6673	42708.38	3.6940	3.6941	1.0700	5.99	0.00	0.750			
0.6704	42902.94	3.6910	3.6909	0.9875	5.99	-0.00	0.750			
0.6732	43087.48	3.6880	3.6881	0.9298	5.98	-0.01	0.750			
0.6759	43255.90	3.6850	3.6851	0.9011	5.98	-0.01	0.750			
0.6785	43422.19	3.6820	3.6821	0.8818	5.98	-0.01	0.750			
0.6811	43588.64	3.6790	3.6791	0.8560	5.97	-0.02	0.750			
0.6836	43751.08	3.6760	3.6762	0.8352	5.97	-0.02	0.750			
0.6862	43916.04	3.6730	3.6731	0.8152	5.97	-0.02	0.750			
0.6886	44072.60	3.6700	3.6702	0.7854	5.97	-0.02	0.750			
0.6910	44226.75	3.6670	3.6669	0.7571	5.97	-0.02	0.750			
0.6931	44360.19	3.6640	3.6641	0.7077	5.97	-0.02	0.750			
0.6952	44489.61	3.6610	3.6609	0.6724	5.97	-0.02	0.750			
0.6972	44620.04	3.6580	3.6580	0.6398	5.97	-0.02	0.750			
0.6991	44739.68	3.6550	3.6549	0.6130	5.98	-0.01	0.750			
0.7009	44855.79	3.6520	3.6521	0.5787	5.98	-0.01	0.750			
0.7026	44964.81	3.6490	3.6491	0.5491	5.98	-0.01	0.750			
0.7041	45064.25	3.6460	3.6462	0.5148	5.98	-0.01	0.750			
0.7056	45161.12	3.6430	3.6432	0.4825	5.99	-0.00	0.750			
0.7070	45250.59	3.6400	3.6397	0.4484	5.99	-0.00	0.750			
0.7083	45333.22	3.6370	3.6372	0.4180	5.99	0.00	0.750			
0.7095	45409.28	3.6340	3.6344	0.3775	5.99	0.00	0.750			
0.7106	45479.36	3.6310	3.6317	0.3497	6.00	0.01	0.750			
0.7116	45542.83	3.6280	3.6284	0.3137	6.00	0.01	0.750			
0.7125	45600.26	3.6250	3.6260	0.2833	6.00	0.01	0.750			
0.7134	45654.61	3.6220	3.6225	0.2474	6.00	0.01	0.750			
0.7141	45700.45	3.6190	3.6196	0.2149	6.00	0.01	0.750			
0.7147	45738.54	3.6160	3.6164	0.1751	6.00	0.01	0.750			
0.7152	45770.32	3.6130	3.6137	0.1366	6.00	0.01	0.750			
0.7155	45788.94	3.6100	3.6110	0.0907	6.00	0.01	0.750			
0.7157	45805.82	3.6010	3.6037	-0.0469	6.00	0.01	0.750			
0.7157	45805.82	3.6070	3.6037	0.0469	6.00	0.01	0.750			
0.7158	45810.32	3.6040	3.4097	-0.0000	6.00	0.01	0.741			
