Ah_balance (normalized)	Ah_balance (mAh)	Voltage - fit (V)	Voltage -  interpolate (V)	dQ/dV (1/V)	Temperature (°C)	Temperature - diff (°C)	Current (C)	R_DC 0ms (mOhm)	R_DC 50ms (mOhm)	R_DC 50 ms PEC (mOhm)
0.1773	11345.86	4.0800	4.0800	0.7989	7.62	1.63	0.750			
0.1796	11494.22	4.0770	4.0772	0.7805	7.61	1.62	0.750			
0.1820	11647.47	4.0740	4.0738	0.7952	7.61	1.62	0.750			
0.1844	11802.99	4.0710	4.0709	0.7945	7.61	1.62	0.750			
0.1868	11955.91	4.0680	4.0680	0.7879	7.60	1.61	0.750			
0.1892	12108.34	4.0650	4.0653	0.7935	7.60	1.61	0.750			
0.1916	12260.01	4.0620	4.0619	0.7915	7.60	1.61	0.750			
0.1939	12409.32	4.0590	4.0588	0.7916	7.59	1.60	0.750			
0.1962	12559.05	4.0560	4.0561	0.7978	7.59	1.60	0.750			
0.1987	12717.48	4.0530	4.0529	0.7992	7.58	1.59	0.750			
0.2011	12870.81	4.0500	4.0500	0.8082	7.58	1.59	0.750			
0.2035	13026.06	4.0470	4.0471	0.8144	7.58	1.59	0.750			
0.2060	13181.79	4.0440	4.0443	0.8126	7.57	1.58	0.750			
0.2084	13337.75	4.0410	4.0410	0.8175	7.57	1.58	0.750			
0.2109	13495.94	4.0380	4.0381	0.8159	7.56	1.57	0.750			
0.2133	13652.54	4.0350	4.0351	0.8155	7.56	1.57	0.750			
0.2158	13810.01	4.0320	4.0320	0.8223	7.56	1.57	0.750			
0.2182	13966.97	4.0290	4.0291	0.8183	7.55	1.56	0.750			
0.2207	14124.97	4.0260	4.0259	0.8239	7.55	1.56	0.750			
0.2232	14284.82	4.0230	4.0230	0.8273	7.54	1.55	0.750			
0.2257	14442.11	4.0200	4.0200	0.8323	7.54	1.55	0.750			
0.2282	14603.74	4.0170	4.0170	0.8378	7.53	1.54	0.750			
0.2307	14765.35	4.0140	4.0141	0.8392	7.52	1.53	0.750			
0.2332	14926.07	4.0110	4.0110	0.8432	7.52	1.53	0.750			
0.2358	15090.38	4.0080	4.0080	0.8458	7.51	1.52	0.750			
0.2383	15253.00	4.0050	4.0050	0.8490	7.51	1.52	0.750			
0.2409	15416.30	4.0020	4.0021	0.8511	7.50	1.51	0.750			
0.2434	15578.49	3.9990	3.9990	0.8532	7.49	1.50	0.750			
0.2460	15743.01	3.9960	3.9960	0.8620	7.49	1.50	0.750			
0.2486	15909.92	3.9930	3.9930	0.8610	7.48	1.49	0.750			
0.2512	16075.97	3.9900	3.9900	0.8597	7.47	1.48	0.750			
0.2538	16243.28	3.9870	3.9870	0.8643	7.47	1.48	0.750			
0.2564	16406.74	3.9840	3.9841	0.8638	7.46	1.47	0.750			
0.2589	16571.87	3.9810	3.9810	0.8708	7.46	1.47	0.750			
0.2616	16740.90	3.9780	3.9779	0.8570	7.45	1.46	0.750			
0.2641	16904.94	3.9750	3.9750	0.8660	7.44	1.45	0.750			
0.2667	17070.38	3.9720	3.9721	0.8760	7.44	1.45	0.750			
0.2694	17239.36	3.9690	3.9687	0.8832	7.43	1.44	0.750			
0.2720	17410.69	3.9660	3.9660	0.8897	7.42	1.43	0.750			
0.2747	17580.11	3.9630	3.9631	0.8956	7.42	1.43	0.750			
0.2774	17754.61	3.9600	3.9601	0.9044	7.41	1.42	0.750			
0.2802	17934.61	3.9570	3.9571	0.9124	7.40	1.41	0.750			
0.2829	18104.83	3.9540	3.9539	0.9120	7.40	1.41	0.750			
0.2856	18280.90	3.9510	3.9510	0.9077	7.39	1.40	0.750			
0.2884	18455.77	3.9480	3.9480	0.9127	7.39	1.40	0.750			
0.2911	18629.94	3.9450	3.9451	0.9167	7.38	1.39	0.750			
0.2938	18805.45	3.9420	3.9420	0.9238	7.37	1.38	0.750			
0.2967	18985.85	3.9390	3.9390	0.9269	7.36	1.37	0.750			
0.2994	19163.72	3.9360	3.9360	0.9373	7.35	1.36	0.750			
0.3022	19342.82	3.9330	3.9330	0.9465	7.35	1.36	0.750			
0.3051	19527.25	3.9300	3.9302	0.9638	7.34	1.35	0.750			
0.3080	19711.59	3.9270	3.9268	0.9716	7.33	1.34	0.750			
0.3109	19899.78	3.9240	3.9241	0.9692	7.32	1.33	0.750			
0.3138	20085.16	3.9210	3.9212	0.9769	7.31	1.32	0.750			
0.3168	20274.12	3.9180	3.9181	0.9870	7.31	1.32	0.750			
0.3198	20464.18	3.9150	3.9145	0.9931	7.30	1.31	0.750			
0.3227	20653.79	3.9120	3.9121	0.9928	7.29	1.30	0.750			
0.3257	20845.20	3.9090	3.9091	1.0010	7.28	1.29	0.750			
0.3287	21039.83	3.9060	3.9061	1.0141	7.26	1.27	0.750			
0.3318	21234.63	3.9030	3.9028	1.0204	7.25	1.26	0.750			
0.3349	21432.86	3.9000	3.9001	1.0129	7.25	1.26	0.750			
0.3379	21626.29	3.8970	3.8970	1.0350	7.24	1.25	0.750			
0.3410	21825.32	3.8940	3.8941	1.0495	7.24	1.25	0.750			
0.3442	22028.43	3.8910	3.8907	1.0614	7.23	1.24	0.750			
0.3474	22234.43	3.8880	3.8881	1.0806	7.22	1.23	0.750			
0.3507	22444.86	3.8850	3.8851	1.0901	7.21	1.22	0.750			
0.3540	22656.16	3.8820	3.8821	1.1031	7.20	1.21	0.750			
0.3574	22871.32	3.8790	3.8789	1.1058	7.19	1.20	0.750			
0.3607	23084.67	3.8760	3.8760	1.1196	7.18	1.19	0.750			
0.3640	23295.68	3.8730	3.8730	1.1354	7.17	1.18	0.750			
0.3674	23514.19	3.8700	3.8702	1.1591	7.16	1.17	0.750			
0.3710	23741.58	3.8670	3.8670	1.1737	7.15	1.16	0.750			
0.3745	23969.94	3.8640	3.8639	1.1901	7.13	1.14	0.750			
0.3781	24199.32	3.8610	3.8612	1.2129	7.12	1.13	0.750			
0.3818	24437.97	3.8580	3.8578	1.2155	7.11	1.12	0.750			
0.3855	24671.97	3.8550	3.8550	1.2298	7.10	1.11	0.750			
0.3892	24907.84	3.8520	3.8521	1.2419	7.09	1.10	0.750			
0.3929	25146.91	3.8490	3.8491	1.2586	7.08	1.09	0.750			
0.3967	25387.96	3.8460	3.8459	1.2804	7.06	1.07	0.750			
0.4005	25635.13	3.8430	3.8431	1.3002	7.05	1.06	0.750			
0.4045	25885.80	3.8400	3.8401	1.3319	7.03	1.04	0.750			
0.4086	26149.33	3.8370	3.8369	1.3872	7.01	1.02	0.750			
0.4128	26419.24	3.8340	3.8340	1.3928	7.00	1.01	0.750	0.398	0.911	
0.4171	26691.57	3.8310	3.8312	1.4284	6.98	0.99	0.750			
0.4214	26968.14	3.8280	3.8281	1.4693	6.96	0.97	0.750			
0.4258	27250.32	3.8250	3.8249	1.4866	6.94	0.95	0.750			
0.4302	27535.10	3.8220	3.8223	1.5271	6.92	0.93	0.750			
0.4348	27829.53	3.8190	3.8190	1.5580	6.90	0.91	0.750			
0.4395	28129.73	3.8160	3.8157	1.5701	6.89	0.90	0.750			
0.4443	28435.74	3.8130	3.8131	1.6016	6.87	0.88	0.750			
0.4492	28747.93	3.8100	3.8101	1.6561	6.86	0.87	0.750			
0.4542	29067.50	3.8070	3.8070	1.7301	6.84	0.85	0.750			
0.4594	29398.44	3.8040	3.8043	1.7727	6.82	0.83	0.750			
0.4649	29751.44	3.8010	3.8012	1.8174	6.79	0.80	0.750			
0.4704	30104.86	3.7980	3.7981	1.8089	6.77	0.78	0.750			
0.4758	30451.23	3.7950	3.7948	1.8147	6.74	0.75	0.750			
0.4812	30797.15	3.7920	3.7921	1.8456	6.71	0.72	0.750			
0.4868	31155.87	3.7890	3.7891	1.8625	6.69	0.70	0.750			
0.4925	31518.39	3.7860	3.7862	1.9246	6.66	0.67	0.750			
0.4984	31899.43	3.7830	3.7833	1.9553	6.63	0.64	0.750			
0.5043	32275.88	3.7800	3.7803	2.0143	6.60	0.61	0.750			
0.5104	32665.26	3.7770	3.7772	2.0081	6.58	0.59	0.750			
0.5165	33053.25	3.7740	3.7741	2.0353	6.55	0.56	0.750			
0.5226	33444.26	3.7710	3.7709	2.0467	6.53	0.54	0.750			
0.5287	33837.83	3.7680	3.7679	2.0801	6.50	0.51	0.750			
0.5348	34228.59	3.7650	3.7651	2.1142	6.48	0.49	0.750			
0.5414	34647.29	3.7620	3.7619	2.1726	6.45	0.46	0.750			
0.5479	35067.99	3.7590	3.7592	2.1994	6.42	0.43	0.750			
0.5547	35499.72	3.7560	3.7560	2.2867	6.39	0.40	0.750			
0.5614	35930.73	3.7530	3.7530	2.2931	6.36	0.37	0.750			
0.5684	36375.90	3.7500	3.7501	2.2846	6.34	0.35	0.750			
0.5751	36806.99	3.7470	3.7473	2.2690	6.30	0.31	0.750			
0.5818	37234.16	3.7440	3.7439	2.3569	6.27	0.28	0.750			
0.5892	37706.54	3.7410	3.7409	2.4125	6.25	0.26	0.750			
0.5966	38184.33	3.7380	3.7382	2.5342	6.22	0.23	0.750			
0.6044	38680.94	3.7350	3.7349	2.6089	6.18	0.19	0.750			
0.6123	39184.01	3.7320	3.7321	2.6915	6.15	0.16	0.750			
0.6205	39715.08	3.7290	3.7289	2.8350	6.13	0.14	0.750			
0.6290	40259.14	3.7260	3.7260	2.8525	6.10	0.11	0.750			
0.6381	40836.85	3.7230	3.7227	2.9526	6.07	0.08	0.750			
0.6468	41396.88	3.7200	3.7201	2.8658	6.04	0.05	0.750			
0.6557	41961.70	3.7170	3.7169	2.8403	6.02	0.03	0.750			
0.6638	42480.36	3.7140	3.7139	2.6046	6.00	0.01	0.750			
0.6714	42970.07	3.7110	3.7111	2.3788	5.99	-0.00	0.750			
0.6781	43399.21	3.7080	3.7081	2.1345	5.98	-0.01	0.750			
0.6842	43785.66	3.7050	3.7049	1.8798	5.97	-0.02	0.750			
0.6894	44123.14	3.7020	3.7019	1.6636	5.96	-0.03	0.750			
0.6940	44418.36	3.6990	3.6991	1.4536	5.95	-0.04	0.750			
0.6979	44666.72	3.6960	3.6959	1.2780	5.95	-0.04	0.750			
0.7013	44881.58	3.6930	3.6930	1.1198	5.95	-0.04	0.750			
0.7043	45074.72	3.6900	3.6900	1.0114	5.95	-0.04	0.750			
0.7072	45262.24	3.6870	3.6867	0.9492	5.95	-0.04	0.750			
0.7099	45434.00	3.6840	3.6840	0.8849	5.95	-0.04	0.750			
0.7125	45597.84	3.6810	3.6810	0.8271	5.96	-0.03	0.750			
0.7149	45750.52	3.6780	3.6780	0.7809	5.96	-0.03	0.750			
0.7171	45895.54	3.6750	3.6749	0.7344	5.97	-0.02	0.750			
0.7192	46030.89	3.6720	3.6718	0.6865	5.97	-0.02	0.750			
0.7212	46159.62	3.6690	3.6690	0.6403	5.97	-0.02	0.750			
0.7231	46278.63	3.6660	3.6661	0.5914	5.98	-0.01	0.750			
0.7248	46388.59	3.6630	3.6631	0.5461	5.98	-0.01	0.750			
0.7264	46488.80	3.6600	3.6599	0.5001	5.98	-0.01	0.750			
0.7278	46578.34	3.6570	3.6570	0.4519	5.98	-0.01	0.750			
0.7291	46659.32	3.6540	3.6540	0.4093	5.98	-0.01	0.750			
0.7302	46733.37	3.6510	3.6510	0.3706	5.99	-0.00	0.750			
0.7313	46801.04	3.6480	3.6480	0.3339	5.99	-0.00	0.750			
0.7322	46861.10	3.6450	3.6447	0.2958	5.99	0.00	0.750			
0.7330	46915.17	3.6420	3.6420	0.2574	5.99	0.00	0.750			
0.7338	46961.37	3.6390	3.6390	0.2209	5.99	0.00	0.750			
0.7344	47000.66	3.6360	3.6361	0.1835	5.99	0.00	0.750			
0.7349	47032.87	3.6330	3.6329	0.1449	5.99	0.00	0.750			
0.7353	47056.03	3.6300	3.6303	0.1039	5.99	0.00	0.750			
0.7355	47071.83	3.6270	3.6278	0.0646	6.00	0.01	0.750			
0.7356	47080.78	3.6240	3.6245	0.0245	6.00	0.01	0.750			
0.7357	47081.65	3.6210	3.6238	-0.0154	6.00	0.01	0.750			
