Ah_balance (normalized)	Ah_balance (mAh)	Voltage - fit (V)	Voltage -  interpolate (V)	dQ/dV (1/V)	Temperature (°C)	Temperature - diff (°C)	Current (C)	R_DC 0ms (mOhm)	R_DC 50ms (mOhm)	R_DC 50 ms PEC (mOhm)
0.1791	11464.43	4.0810	4.0810	0.7906	7.21	1.22	0.750			
0.1815	11614.67	4.0780	4.0781	0.7823	7.21	1.22	0.750			
0.1838	11764.35	4.0750	4.0751	0.7860	7.21	1.22	0.750			
0.1862	11916.39	4.0720	4.0718	0.7904	7.21	1.22	0.750			
0.1886	12068.59	4.0690	4.0690	0.7901	7.21	1.22	0.750			
0.1910	12222.00	4.0660	4.0660	0.7893	7.21	1.22	0.750			
0.1933	12373.39	4.0630	4.0630	0.7895	7.21	1.22	0.750			
0.1957	12523.00	4.0600	4.0601	0.7879	7.21	1.22	0.750			
0.1980	12674.93	4.0570	4.0569	0.7902	7.21	1.22	0.750			
0.2004	12825.75	4.0540	4.0540	0.7895	7.21	1.22	0.750			
0.2028	12979.49	4.0510	4.0510	0.7891	7.20	1.21	0.750			
0.2052	13131.49	4.0480	4.0481	0.7981	7.20	1.21	0.750			
0.2076	13284.94	4.0450	4.0450	0.8012	7.20	1.21	0.750			
0.2100	13436.88	4.0420	4.0419	0.8019	7.19	1.20	0.750			
0.2124	13590.69	4.0390	4.0391	0.8105	7.19	1.20	0.750			
0.2148	13747.98	4.0360	4.0361	0.8158	7.18	1.19	0.750			
0.2173	13905.71	4.0330	4.0329	0.8198	7.18	1.19	0.750			
0.2198	14064.08	4.0300	4.0300	0.8278	7.18	1.19	0.750			
0.2222	14222.73	4.0270	4.0271	0.8250	7.17	1.18	0.750			
0.2247	14381.39	4.0240	4.0240	0.8309	7.17	1.18	0.750			
0.2272	14542.41	4.0210	4.0210	0.8292	7.16	1.17	0.750			
0.2297	14701.21	4.0180	4.0181	0.8298	7.16	1.17	0.750			
0.2322	14860.94	4.0150	4.0150	0.8347	7.16	1.17	0.750			
0.2347	15020.66	4.0120	4.0121	0.8340	7.15	1.16	0.750			
0.2372	15180.08	4.0090	4.0090	0.8374	7.15	1.16	0.750			
0.2397	15343.41	4.0060	4.0060	0.8390	7.14	1.15	0.750			
0.2422	15502.31	4.0030	4.0030	0.8416	7.14	1.15	0.750			
0.2448	15666.09	4.0000	4.0001	0.8484	7.14	1.15	0.750			
0.2473	15826.56	3.9970	3.9970	0.8503	7.13	1.14	0.750			
0.2499	15990.75	3.9940	3.9940	0.8531	7.13	1.14	0.750			
0.2524	16156.39	3.9910	3.9911	0.8542	7.12	1.13	0.750			
0.2550	16319.68	3.9880	3.9881	0.8583	7.12	1.13	0.750			
0.2576	16487.21	3.9850	3.9849	0.8665	7.12	1.13	0.750			
0.2602	16651.50	3.9820	3.9819	0.8632	7.11	1.12	0.750			
0.2628	16818.00	3.9790	3.9790	0.8624	7.11	1.12	0.750			
0.2654	16983.12	3.9760	3.9761	0.8640	7.10	1.11	0.750			
0.2680	17149.90	3.9730	3.9730	0.8697	7.10	1.11	0.750			
0.2706	17316.55	3.9700	3.9700	0.8755	7.09	1.10	0.750			
0.2732	17483.09	3.9670	3.9667	0.8800	7.09	1.10	0.750			
0.2759	17654.82	3.9640	3.9640	0.8799	7.09	1.10	0.750			
0.2785	17823.66	3.9610	3.9610	0.8903	7.08	1.09	0.750			
0.2812	17996.13	3.9580	3.9580	0.9009	7.08	1.09	0.750			
0.2839	18169.05	3.9550	3.9550	0.9041	7.07	1.08	0.750			
0.2866	18341.20	3.9520	3.9519	0.9105	7.07	1.08	0.750			
0.2893	18518.07	3.9490	3.9491	0.9116	7.06	1.07	0.750			
0.2921	18693.94	3.9460	3.9460	0.9183	7.06	1.07	0.750			
0.2949	18871.30	3.9430	3.9430	0.9273	7.05	1.06	0.750			
0.2976	19047.27	3.9400	3.9400	0.9260	7.04	1.05	0.750			
0.3004	19227.77	3.9370	3.9370	0.9296	7.04	1.05	0.750			
0.3032	19405.57	3.9340	3.9341	0.9418	7.03	1.04	0.750			
0.3060	19586.67	3.9310	3.9310	0.9518	7.02	1.03	0.750			
0.3089	19772.13	3.9280	3.9280	0.9598	7.01	1.02	0.750			
0.3118	19954.14	3.9250	3.9250	0.9672	7.01	1.02	0.750			
0.3147	20141.00	3.9220	3.9222	0.9742	7.00	1.01	0.750			
0.3177	20331.11	3.9190	3.9189	0.9817	7.00	1.01	0.750			
0.3206	20520.72	3.9160	3.9160	0.9836	6.99	1.00	0.750			
0.3236	20708.02	3.9130	3.9129	0.9862	6.99	1.00	0.750			
0.3265	20896.51	3.9100	3.9101	0.9986	6.99	1.00	0.750			
0.3295	21089.07	3.9070	3.9069	1.0119	6.98	0.99	0.750			
0.3325	21282.53	3.9040	3.9040	1.0205	6.98	0.99	0.750			
0.3357	21481.96	3.9010	3.9010	1.0368	6.97	0.98	0.750			
0.3388	21684.76	3.8980	3.8980	1.0383	6.96	0.97	0.750			
0.3419	21882.44	3.8950	3.8951	1.0494	6.95	0.96	0.750			
0.3450	22082.62	3.8920	3.8921	1.0551	6.94	0.95	0.750			
0.3482	22285.29	3.8890	3.8886	1.0667	6.93	0.94	0.750			
0.3514	22489.14	3.8860	3.8861	1.0720	6.93	0.94	0.750			
0.3546	22695.64	3.8830	3.8831	1.0924	6.92	0.93	0.750			
0.3579	22908.72	3.8800	3.8801	1.1129	6.91	0.92	0.750			
0.3614	23127.00	3.8770	3.8767	1.1100	6.91	0.92	0.750			
0.3647	23337.83	3.8740	3.8741	1.1397	6.90	0.91	0.750			
0.3681	23559.71	3.8710	3.8711	1.1593	6.89	0.90	0.750			
0.3717	23786.29	3.8680	3.8681	1.1773	6.88	0.89	0.750			
0.3752	24012.60	3.8650	3.8652	1.1749	6.86	0.87	0.750			
0.3787	24239.69	3.8620	3.8622	1.1912	6.85	0.86	0.750			
0.3823	24467.90	3.8590	3.8591	1.2159	6.84	0.85	0.750			
0.3860	24706.68	3.8560	3.8554	1.2137	6.83	0.84	0.750			
0.3896	24934.27	3.8530	3.8532	1.2303	6.82	0.83	0.750			
0.3934	25175.30	3.8500	3.8502	1.2631	6.81	0.82	0.750			
0.3972	25423.98	3.8470	3.8470	1.2854	6.80	0.81	0.750			
0.4011	25672.67	3.8440	3.8441	1.3322	6.79	0.80	0.750			
0.4050	25923.07	3.8410	3.8411	1.3622	6.78	0.79	0.750			
0.4092	26190.97	3.8380	3.8379	1.3956	6.77	0.78	0.750			
0.4136	26469.05	3.8350	3.8352	1.4425	6.76	0.77	0.750	0.373	0.933	
0.4179	26744.69	3.8320	3.8322	1.4528	6.75	0.76	0.750			
0.4224	27034.19	3.8290	3.8288	1.4509	6.73	0.74	0.750			
0.4267	27306.71	3.8260	3.8262	1.4676	6.72	0.73	0.750			
0.4311	27587.36	3.8230	3.8228	1.5235	6.71	0.72	0.750			
0.4357	27882.76	3.8200	3.8196	1.5717	6.69	0.70	0.750			
0.4405	28193.35	3.8170	3.8176	1.5982	6.68	0.69	0.750			
0.4456	28517.36	3.8140	3.8143	1.6449	6.66	0.67	0.750			
0.4505	28832.55	3.8110	3.8111	1.6276	6.64	0.65	0.750			
0.4552	29130.02	3.8080	3.8078	1.6158	6.63	0.64	0.750			
0.4599	29436.68	3.8050	3.8051	1.6560	6.61	0.62	0.750			
0.4651	29764.46	3.8020	3.8022	1.6968	6.60	0.61	0.750			
0.4703	30101.53	3.7990	3.7992	1.7724	6.58	0.59	0.750			
0.4757	30445.34	3.7960	3.7961	1.7935	6.56	0.57	0.750			
0.4812	30793.83	3.7930	3.7929	1.8398	6.55	0.56	0.750			
0.4868	31154.24	3.7900	3.7902	1.8518	6.53	0.54	0.750			
0.4922	31503.20	3.7870	3.7871	1.9268	6.50	0.51	0.750			
0.4982	31882.70	3.7840	3.7838	1.9688	6.48	0.49	0.750			
0.5043	32272.30	3.7810	3.7808	1.9618	6.47	0.48	0.750			
0.5101	32643.34	3.7780	3.7781	1.9905	6.45	0.46	0.750			
0.5161	33028.47	3.7750	3.7748	1.9939	6.43	0.44	0.750			
0.5220	33405.42	3.7720	3.7721	2.0243	6.41	0.42	0.750			
0.5283	33811.49	3.7690	3.7691	2.1296	6.39	0.40	0.750			
0.5346	34216.24	3.7660	3.7660	2.1250	6.37	0.38	0.750			
0.5406	34599.75	3.7630	3.7632	2.2158	6.36	0.37	0.750			
0.5473	35025.81	3.7600	3.7600	2.4265	6.33	0.34	0.750			
0.5550	35519.69	3.7570	3.7561	2.5012	6.31	0.32	0.750			
0.5633	36050.26	3.7540	3.7544	2.6191	6.28	0.29	0.750			
0.5705	36514.60	3.7510	3.7510	2.5329	6.24	0.25	0.750			
0.5775	36958.30	3.7480	3.7477	2.3016	6.22	0.23	0.750			
0.5844	37403.30	3.7450	3.7449	2.3544	6.21	0.22	0.750			
0.5916	37863.40	3.7420	3.7419	2.4425	6.19	0.20	0.750			
0.5989	38326.48	3.7390	3.7392	2.5181	6.17	0.18	0.750			
0.6067	38828.83	3.7360	3.7360	2.6464	6.14	0.15	0.750			
0.6148	39346.37	3.7330	3.7329	2.7305	6.12	0.13	0.750			
0.6232	39882.51	3.7300	3.7301	2.8112	6.09	0.10	0.750			
0.6318	40435.63	3.7270	3.7269	2.8041	6.08	0.09	0.750			
0.6401	40967.96	3.7240	3.7240	2.7580	6.06	0.07	0.750			
0.6482	41487.57	3.7210	3.7209	2.7045	6.03	0.04	0.750			
0.6565	42015.84	3.7180	3.7180	2.6131	6.02	0.03	0.750			
0.6642	42506.85	3.7150	3.7153	2.4035	6.00	0.01	0.750			
0.6709	42934.50	3.7120	3.7125	2.1005	5.99	0.00	0.750			
0.6766	43304.73	3.7090	3.7091	1.8355	5.98	-0.01	0.750			
0.6817	43631.08	3.7060	3.7060	1.6154	5.98	-0.01	0.750			
0.6863	43925.66	3.7030	3.7028	1.4387	5.97	-0.02	0.750			
0.6903	44178.54	3.7000	3.7001	1.2753	5.97	-0.02	0.750			
0.6937	44397.85	3.6970	3.6970	1.1436	5.97	-0.02	0.750			
0.6968	44596.24	3.6940	3.6941	1.0292	5.97	-0.02	0.750			
0.6997	44778.17	3.6910	3.6912	0.9484	5.97	-0.02	0.750			
0.7024	44952.88	3.6880	3.6879	0.8913	5.97	-0.02	0.750			
0.7049	45116.72	3.6850	3.6850	0.8420	5.97	-0.02	0.750			
0.7074	45274.46	3.6820	3.6820	0.7986	5.97	-0.02	0.750			
0.7098	45424.24	3.6790	3.6790	0.7560	5.97	-0.02	0.750			
0.7120	45566.14	3.6760	3.6760	0.7072	5.97	-0.02	0.750			
0.7140	45697.97	3.6730	3.6730	0.6578	5.97	-0.02	0.750			
0.7159	45819.35	3.6700	3.6700	0.6070	5.98	-0.01	0.750			
0.7177	45931.10	3.6670	3.6671	0.5601	5.98	-0.01	0.750			
0.7193	46032.20	3.6640	3.6639	0.5121	5.98	-0.01	0.750			
0.7207	46125.05	3.6610	3.6609	0.4680	5.99	-0.00	0.750			
0.7220	46209.97	3.6580	3.6580	0.4248	5.99	-0.00	0.750			
0.7233	46288.22	3.6550	3.6550	0.3872	5.99	-0.00	0.750			
0.7244	46359.45	3.6520	3.6520	0.3492	5.99	0.00	0.750			
0.7253	46422.19	3.6490	3.6490	0.3115	5.99	0.00	0.750			
0.7262	46477.00	3.6460	3.6460	0.2721	5.99	0.00	0.750			
0.7270	46526.67	3.6430	3.6429	0.2349	6.00	0.01	0.750			
0.7276	46568.17	3.6400	3.6399	0.1975	6.00	0.01	0.750			
0.7282	46602.89	3.6370	3.6371	0.1600	6.00	0.01	0.750			
0.7286	46630.53	3.6340	3.6343	0.1209	6.00	0.01	0.750			
0.7289	46650.00	3.6310	3.6317	0.0804	6.00	0.01	0.750			
0.7291	46661.56	3.6280	3.6292	0.0266	6.00	0.01	0.750			
