Ah_balance (normalized)	Ah_balance (mAh)	Voltage - fit (V)	Voltage -  interpolate (V)	dQ/dV (1/V)	Temperature (°C)	Temperature - diff (°C)	Current (C)	R_DC 0ms (mOhm)	R_DC 50ms (mOhm)	R_DC 50 ms PEC (mOhm)
0.1802	11532.37	4.0810	4.0810	0.7673	7.57	1.60	0.750			
0.1825	11680.32	4.0780	4.0777	0.7732	7.57	1.60	0.750			
0.1848	11829.20	4.0750	4.0751	0.7764	7.57	1.60	0.750			
0.1872	11979.10	4.0720	4.0720	0.7783	7.56	1.59	0.750			
0.1895	12128.66	4.0690	4.0690	0.7818	7.56	1.59	0.750			
0.1919	12279.17	4.0660	4.0660	0.7830	7.56	1.59	0.750			
0.1942	12427.56	4.0630	4.0631	0.7881	7.55	1.58	0.750			
0.1966	12579.26	4.0600	4.0600	0.7931	7.55	1.58	0.750			
0.1990	12735.70	4.0570	4.0570	0.7898	7.54	1.57	0.750			
0.2013	12884.85	4.0540	4.0541	0.7976	7.54	1.57	0.750			
0.2037	13038.01	4.0510	4.0511	0.8030	7.54	1.57	0.750			
0.2061	13192.50	4.0480	4.0481	0.8077	7.53	1.56	0.750			
0.2086	13347.56	4.0450	4.0448	0.8108	7.53	1.56	0.750			
0.2110	13504.92	4.0420	4.0422	0.8072	7.52	1.55	0.750			
0.2135	13661.14	4.0390	4.0391	0.8153	7.52	1.55	0.750			
0.2159	13818.46	4.0360	4.0359	0.8174	7.51	1.54	0.750			
0.2183	13973.65	4.0330	4.0330	0.8105	7.50	1.53	0.750			
0.2208	14128.24	4.0300	4.0299	0.8140	7.50	1.53	0.750			
0.2232	14286.53	4.0270	4.0271	0.8136	7.49	1.52	0.750			
0.2257	14442.75	4.0240	4.0240	0.8214	7.49	1.52	0.750			
0.2281	14600.93	4.0210	4.0210	0.8265	7.48	1.51	0.750			
0.2306	14758.15	4.0180	4.0181	0.8292	7.48	1.51	0.750			
0.2331	14918.49	4.0150	4.0147	0.8345	7.47	1.50	0.750			
0.2356	15080.25	4.0120	4.0121	0.8395	7.46	1.49	0.750			
0.2382	15242.12	4.0090	4.0090	0.8338	7.46	1.49	0.750			
0.2406	15401.53	4.0060	4.0061	0.8373	7.45	1.48	0.750			
0.2431	15560.99	4.0030	4.0031	0.8387	7.45	1.48	0.750			
0.2456	15720.59	4.0000	3.9997	0.8431	7.44	1.47	0.750			
0.2482	15885.23	3.9970	3.9970	0.8442	7.43	1.46	0.750			
0.2508	16048.38	3.9940	3.9941	0.8514	7.43	1.46	0.750			
0.2533	16214.07	3.9910	3.9910	0.8593	7.42	1.45	0.750			
0.2559	16377.85	3.9880	3.9881	0.8593	7.41	1.44	0.750			
0.2585	16543.32	3.9850	3.9850	0.8611	7.41	1.44	0.750			
0.2611	16710.03	3.9820	3.9820	0.8643	7.40	1.43	0.750			
0.2637	16876.50	3.9790	3.9790	0.8695	7.39	1.42	0.750			
0.2663	17044.57	3.9760	3.9762	0.8741	7.38	1.41	0.750			
0.2689	17211.94	3.9730	3.9728	0.8777	7.37	1.40	0.750			
0.2716	17381.07	3.9700	3.9700	0.8801	7.37	1.40	0.750			
0.2742	17549.58	3.9670	3.9670	0.8782	7.36	1.39	0.750			
0.2768	17718.34	3.9640	3.9641	0.8869	7.35	1.38	0.750			
0.2795	17890.52	3.9610	3.9611	0.8953	7.35	1.38	0.750			
0.2822	18061.87	3.9580	3.9578	0.8983	7.34	1.37	0.750			
0.2849	18234.64	3.9550	3.9551	0.9024	7.33	1.36	0.750			
0.2876	18408.51	3.9520	3.9520	0.9071	7.32	1.35	0.750			
0.2904	18584.96	3.9490	3.9490	0.9201	7.32	1.35	0.750			
0.2932	18761.71	3.9460	3.9460	0.9271	7.31	1.34	0.750			
0.2959	18938.39	3.9430	3.9429	0.9268	7.30	1.33	0.750			
0.2987	19118.09	3.9400	3.9400	0.9307	7.29	1.32	0.750			
0.3015	19297.10	3.9370	3.9371	0.9396	7.29	1.32	0.750			
0.3044	19478.44	3.9340	3.9341	0.9427	7.28	1.31	0.750			
0.3072	19660.15	3.9310	3.9309	0.9470	7.27	1.30	0.750			
0.3100	19842.78	3.9280	3.9280	0.9464	7.26	1.29	0.750			
0.3129	20024.66	3.9250	3.9249	0.9587	7.25	1.28	0.750			
0.3158	20209.18	3.9220	3.9220	0.9726	7.24	1.27	0.750			
0.3187	20396.54	3.9190	3.9192	0.9823	7.24	1.27	0.750			
0.3217	20586.63	3.9160	3.9161	0.9806	7.23	1.26	0.750			
0.3246	20776.19	3.9130	3.9131	0.9930	7.22	1.25	0.750			
0.3276	20966.57	3.9100	3.9101	1.0010	7.21	1.24	0.750			
0.3306	21158.69	3.9070	3.9070	1.0117	7.20	1.23	0.750			
0.3337	21355.07	3.9040	3.9039	1.0160	7.19	1.22	0.750			
0.3367	21549.97	3.9010	3.9010	1.0278	7.18	1.21	0.750			
0.3398	21749.30	3.8980	3.8980	1.0407	7.17	1.20	0.750			
0.3430	21951.14	3.8950	3.8951	1.0552	7.16	1.19	0.750			
0.3462	22155.39	3.8920	3.8919	1.0538	7.15	1.18	0.750			
0.3494	22358.40	3.8890	3.8890	1.0694	7.13	1.16	0.750			
0.3526	22563.78	3.8860	3.8861	1.0810	7.12	1.15	0.750			
0.3558	22772.43	3.8830	3.8831	1.0981	7.11	1.14	0.750			
0.3592	22986.05	3.8800	3.8800	1.0985	7.09	1.12	0.750			
0.3625	23197.13	3.8770	3.8770	1.1214	7.08	1.11	0.750			
0.3658	23411.68	3.8740	3.8741	1.1400	7.07	1.10	0.750			
0.3693	23634.41	3.8710	3.8709	1.1569	7.05	1.08	0.750			
0.3728	23857.33	3.8680	3.8681	1.1700	7.04	1.07	0.750			
0.3763	24084.18	3.8650	3.8651	1.1889	7.03	1.06	0.750			
0.3799	24315.33	3.8620	3.8621	1.2033	7.02	1.05	0.750			
0.3836	24548.32	3.8590	3.8590	1.2121	7.01	1.04	0.750			
0.3872	24782.23	3.8560	3.8560	1.2278	6.99	1.02	0.750			
0.3909	25016.51	3.8530	3.8532	1.2500	6.98	1.01	0.750			
0.3947	25259.97	3.8500	3.8498	1.2742	6.96	0.99	0.750			
0.3985	25505.51	3.8470	3.8470	1.2794	6.95	0.98	0.750			
0.4023	25748.35	3.8440	3.8441	1.3186	6.93	0.96	0.750			
0.4063	26002.78	3.8410	3.8412	1.3573	6.92	0.95	0.750			
0.4104	26267.58	3.8380	3.8380	1.3905	6.90	0.93	0.750			
0.4147	26538.24	3.8350	3.8353	1.4245	6.89	0.92	0.750	0.381	0.925	
0.4191	26821.90	3.8320	3.8321	1.4521	6.87	0.90	0.750			
0.4235	27106.62	3.8290	3.8288	1.4826	6.86	0.89	0.750			
0.4279	27384.77	3.8260	3.8262	1.4870	6.84	0.87	0.750			
0.4323	27669.05	3.8230	3.8229	1.4997	6.82	0.85	0.750			
0.4369	27964.65	3.8200	3.8198	1.5142	6.80	0.83	0.750			
0.4414	28251.11	3.8170	3.8171	1.5505	6.77	0.80	0.750			
0.4462	28554.62	3.8140	3.8140	1.5939	6.75	0.78	0.750			
0.4510	28862.14	3.8110	3.8107	1.6522	6.73	0.76	0.750			
0.4559	29180.06	3.8080	3.8081	1.6738	6.71	0.74	0.750			
0.4612	29515.14	3.8050	3.8049	1.7138	6.68	0.71	0.750			
0.4664	29850.78	3.8020	3.8019	1.7613	6.66	0.69	0.750			
0.4716	30185.14	3.7990	3.7991	1.7427	6.64	0.67	0.750			
0.4769	30524.70	3.7960	3.7959	1.7799	6.62	0.65	0.750			
0.4823	30864.53	3.7930	3.7930	1.8434	6.61	0.64	0.750			
0.4878	31221.03	3.7900	3.7900	1.8764	6.58	0.61	0.750			
0.4936	31590.21	3.7870	3.7869	1.9004	6.55	0.58	0.750			
0.4995	31965.05	3.7840	3.7842	1.9072	6.52	0.55	0.750			
0.5052	32332.25	3.7810	3.7812	1.9232	6.50	0.53	0.750			
0.5110	32702.24	3.7780	3.7782	1.9504	6.47	0.50	0.750			
0.5169	33078.86	3.7750	3.7753	1.9889	6.45	0.48	0.750			
0.5229	33466.14	3.7720	3.7721	2.0274	6.42	0.45	0.750			
0.5291	33863.66	3.7690	3.7688	2.0630	6.39	0.42	0.750			
0.5353	34256.94	3.7660	3.7661	2.0891	6.36	0.39	0.750			
0.5416	34660.73	3.7630	3.7631	2.1125	6.33	0.36	0.750			
0.5479	35067.31	3.7600	3.7598	2.1437	6.31	0.34	0.750			
0.5545	35486.31	3.7570	3.7571	2.2156	6.28	0.31	0.750			
0.5613	35925.85	3.7540	3.7542	2.2179	6.25	0.28	0.750			
0.5678	36339.22	3.7510	3.7512	2.2305	6.22	0.25	0.750			
0.5746	36771.77	3.7480	3.7478	2.2838	6.19	0.22	0.750			
0.5813	37206.36	3.7450	3.7451	2.3053	6.16	0.19	0.750			
0.5886	37669.04	3.7420	3.7420	2.3987	6.13	0.16	0.750			
0.5959	38135.27	3.7390	3.7388	2.3967	6.11	0.14	0.750			
0.6032	38605.19	3.7360	3.7359	2.5529	6.08	0.11	0.750			
0.6111	39110.41	3.7330	3.7324	2.6442	6.05	0.08	0.750			
0.6192	39628.23	3.7300	3.7301	2.6305	6.03	0.06	0.750			
0.6270	40129.80	3.7270	3.7270	2.5737	6.01	0.04	0.750			
0.6345	40607.57	3.7240	3.7240	2.5399	5.99	0.02	0.750			
0.6423	41109.62	3.7210	3.7208	2.5537	5.97	0.00	0.750			
0.6500	41599.61	3.7180	3.7180	2.5159	5.96	-0.01	0.750			
0.6575	42077.49	3.7150	3.7148	2.3125	5.95	-0.02	0.750			
0.6640	42498.44	3.7120	3.7126	2.1297	5.94	-0.03	0.750			
0.6702	42890.07	3.7090	3.7087	1.9102	5.93	-0.04	0.750			
0.6756	43240.16	3.7060	3.7059	1.7127	5.93	-0.04	0.750			
0.6803	43539.85	3.7030	3.7033	1.5302	5.93	-0.04	0.750			
0.6846	43816.78	3.7000	3.7000	1.3545	5.93	-0.04	0.750			
0.6882	44044.36	3.6970	3.6970	1.1937	5.93	-0.04	0.750			
0.6913	44245.58	3.6940	3.6942	1.0676	5.93	-0.04	0.750			
0.6944	44438.65	3.6910	3.6909	1.0000	5.93	-0.04	0.750			
0.6972	44619.98	3.6880	3.6881	0.9392	5.93	-0.04	0.750			
0.6999	44793.32	3.6850	3.6851	0.8875	5.94	-0.03	0.750			
0.7025	44961.09	3.6820	3.6821	0.8562	5.94	-0.03	0.750			
0.7051	45125.15	3.6790	3.6789	0.8320	5.95	-0.02	0.750			
0.7074	45275.71	3.6760	3.6758	0.7790	5.95	-0.02	0.750			
0.7097	45422.14	3.6730	3.6730	0.7437	5.95	-0.02	0.750			
0.7119	45563.26	3.6700	3.6701	0.7061	5.96	-0.01	0.750			
0.7140	45697.52	3.6670	3.6671	0.6669	5.96	-0.01	0.750			
0.7159	45820.73	3.6640	3.6639	0.6217	5.96	-0.01	0.750			
0.7177	45935.81	3.6610	3.6610	0.5791	5.97	-0.00	0.750			
0.7194	46041.54	3.6580	3.6580	0.5384	5.97	-0.00	0.750			
0.7210	46141.84	3.6550	3.6550	0.5019	5.97	0.00	0.750			
0.7224	46234.95	3.6520	3.6519	0.4620	5.97	0.00	0.750			
0.7238	46320.11	3.6490	3.6491	0.4238	5.98	0.01	0.750			
0.7250	46397.35	3.6460	3.6460	0.3861	5.98	0.01	0.750			
0.7261	46467.32	3.6430	3.6430	0.3474	5.98	0.01	0.750			
0.7270	46530.47	3.6400	3.6399	0.3105	5.98	0.01	0.750			
0.7279	46585.68	3.6370	3.6370	0.2748	5.98	0.01	0.750			
0.7287	46636.32	3.6340	3.6341	0.2392	5.98	0.01	0.750			
0.7294	46679.16	3.6310	3.6308	0.2035	5.98	0.01	0.750			
0.7299	46714.82	3.6280	3.6279	0.1663	5.99	0.02	0.750			
0.7304	46743.45	3.6250	3.6253	0.1287	5.99	0.02	0.750			
0.7307	46764.86	3.6220	3.6224	0.0901	5.99	0.02	0.750			
0.7309	46780.39	3.6190	3.6191	0.0437	5.99	0.02	0.750			
0.7310	46784.28	3.6160	3.6174	-0.0033	5.99	0.02	0.750			
