Ah_balance (normalized)	Ah_balance (mAh)	Voltage - fit (V)	Voltage -  interpolate (V)	dQ/dV (1/V)	Temperature (°C)	Temperature - diff (°C)	Current (C)	R_DC 0ms (mOhm)	R_DC 50ms (mOhm)	R_DC 50 ms PEC (mOhm)
0.0927	5931.09	4.0040	4.0032	-0.0583	5.99	0.00	-0.750			
0.0929	5945.31	4.0010	4.0007	-0.0898	5.99	0.00	-0.750			
0.0932	5966.82	3.9980	3.9977	-0.1199	5.99	0.00	-0.750			
0.0936	5992.36	3.9950	3.9951	-0.1482	5.99	0.00	-0.750			
0.0941	6023.78	3.9920	3.9921	-0.1754	5.99	-0.00	-0.750			
0.0947	6060.30	3.9890	3.9891	-0.2013	5.99	-0.00	-0.750			
0.0954	6103.00	3.9860	3.9858	-0.2263	5.99	-0.00	-0.750			
0.0961	6148.87	3.9830	3.9830	-0.2489	5.99	-0.00	-0.750			
0.0969	6198.80	3.9800	3.9800	-0.2714	5.98	-0.01	-0.750			
0.0977	6253.09	3.9770	3.9770	-0.2947	5.98	-0.01	-0.750			
0.0986	6311.71	3.9740	3.9740	-0.3189	5.98	-0.01	-0.750			
0.0996	6374.61	3.9710	3.9710	-0.3420	5.98	-0.01	-0.750			
0.1007	6443.01	3.9680	3.9680	-0.3659	5.98	-0.01	-0.750			
0.1018	6515.20	3.9650	3.9650	-0.3919	5.98	-0.01	-0.750			
0.1030	6593.36	3.9620	3.9620	-0.4150	5.98	-0.01	-0.750			
0.1043	6675.14	3.9590	3.9590	-0.4390	5.97	-0.02	-0.750			
0.1056	6761.46	3.9560	3.9560	-0.4613	5.97	-0.02	-0.750			
0.1071	6852.50	3.9530	3.9529	-0.4830	5.97	-0.02	-0.750			
0.1086	6948.19	3.9500	3.9500	-0.5033	5.97	-0.02	-0.750			
0.1101	7046.59	3.9470	3.9469	-0.5241	5.96	-0.03	-0.750			
0.1117	7148.96	3.9440	3.9441	-0.5412	5.96	-0.03	-0.750			
0.1134	7255.73	3.9410	3.9410	-0.5606	5.96	-0.03	-0.750			
0.1151	7365.30	3.9380	3.9380	-0.5741	5.96	-0.03	-0.750			
0.1168	7477.29	3.9350	3.9350	-0.5901	5.95	-0.04	-0.750			
0.1186	7592.47	3.9320	3.9321	-0.6031	5.95	-0.04	-0.750			
0.1205	7709.85	3.9290	3.9289	-0.6099	5.95	-0.04	-0.750			
0.1223	7827.80	3.9260	3.9260	-0.6169	5.95	-0.04	-0.750			
0.1242	7946.36	3.9230	3.9231	-0.6307	5.95	-0.04	-0.750			
0.1261	8068.14	3.9200	3.9199	-0.6389	5.96	-0.03	-0.750			
0.1280	8192.61	3.9170	3.9169	-0.6477	5.96	-0.03	-0.750			
0.1300	8317.16	3.9140	3.9140	-0.6540	5.96	-0.03	-0.750			
0.1319	8444.10	3.9110	3.9111	-0.6658	5.96	-0.03	-0.750			
0.1340	8572.85	3.9080	3.9081	-0.6759	5.96	-0.03	-0.750			
0.1360	8702.44	3.9050	3.9049	-0.6838	5.96	-0.03	-0.750			
0.1380	8834.75	3.9020	3.9020	-0.6863	5.97	-0.02	-0.750			
0.1401	8969.29	3.8990	3.8990	-0.6949	5.97	-0.02	-0.750			
0.1423	9105.21	3.8960	3.8961	-0.6978	5.97	-0.02	-0.750			
0.1443	9238.04	3.8930	3.8931	-0.7033	5.97	-0.02	-0.750			
0.1464	9371.96	3.8900	3.8900	-0.7036	5.97	-0.02	-0.750			
0.1485	9506.06	3.8870	3.8869	-0.7145	5.98	-0.01	-0.750			
0.1507	9644.26	3.8840	3.8841	-0.7171	5.98	-0.01	-0.750			
0.1529	9783.82	3.8810	3.8810	-0.7246	5.98	-0.01	-0.750			
0.1551	9924.05	3.8780	3.8779	-0.7253	5.99	-0.00	-0.750			
0.1573	10064.11	3.8750	3.8749	-0.7275	5.99	0.00	-0.750			
0.1594	10203.06	3.8720	3.8720	-0.7226	6.00	0.01	-0.750			
0.1616	10341.78	3.8690	3.8688	-0.7275	6.00	0.01	-0.750			
0.1637	10479.37	3.8660	3.8661	-0.7262	6.00	0.01	-0.750			
0.1660	10621.80	3.8630	3.8629	-0.7306	6.01	0.02	-0.750			
0.1682	10761.82	3.8600	3.8601	-0.7324	6.01	0.02	-0.750			
0.1704	10903.12	3.8570	3.8570	-0.7348	6.01	0.02	-0.750			
0.1726	11043.53	3.8540	3.8539	-0.7335	6.02	0.03	-0.750			
0.1748	11186.29	3.8510	3.8510	-0.7317	6.02	0.03	-0.750			
0.1769	11323.58	3.8480	3.8481	-0.7329	6.03	0.04	-0.750			
0.1792	11466.01	3.8450	3.8450	-0.7376	6.04	0.05	-0.750			
0.1814	11608.18	3.8420	3.8421	-0.7407	6.04	0.05	-0.750			
0.1836	11749.74	3.8390	3.8389	-0.7386	6.05	0.06	-0.750			
0.1858	11891.43	3.8360	3.8362	-0.7453	6.05	0.06	-0.750			
0.1881	12035.83	3.8330	3.8330	-0.7443	6.06	0.07	-0.750			
0.1903	12180.85	3.8300	3.8300	-0.7479	6.06	0.07	-0.750			
0.1925	12321.50	3.8270	3.8270	-0.7425	6.07	0.08	-0.750			
0.1947	12463.83	3.8240	3.8239	-0.7463	6.07	0.08	-0.750			
0.1970	12607.32	3.8210	3.8210	-0.7473	6.08	0.09	-0.750			
0.1992	12751.50	3.8180	3.8180	-0.7524	6.09	0.10	-0.750			
0.2015	12897.04	3.8150	3.8150	-0.7480	6.10	0.11	-0.750			
0.2038	13042.28	3.8120	3.8120	-0.7493	6.10	0.11	-0.750			
0.2060	13185.92	3.8090	3.8092	-0.7458	6.11	0.12	-0.750			
0.2083	13328.02	3.8060	3.8059	-0.7440	6.11	0.12	-0.750			
0.2105	13469.00	3.8030	3.8029	-0.7415	6.12	0.13	-0.750			
0.2127	13611.89	3.8000	3.8000	-0.7475	6.12	0.13	-0.750			
0.2149	13756.70	3.7970	3.7969	-0.7534	6.12	0.13	-0.750			
0.2172	13902.18	3.7940	3.7939	-0.7527	6.13	0.14	-0.750			
0.2195	14046.62	3.7910	3.7911	-0.7534	6.13	0.14	-0.750			
0.2217	14191.19	3.7880	3.7879	-0.7526	6.14	0.15	-0.750			
0.2240	14336.15	3.7850	3.7849	-0.7494	6.15	0.16	-0.750			
0.2262	14477.95	3.7820	3.7820	-0.7435	6.15	0.16	-0.750			
0.2285	14621.88	3.7790	3.7790	-0.7497	6.16	0.17	-0.750			
0.2307	14765.29	3.7760	3.7761	-0.7541	6.17	0.18	-0.750			
0.2330	14910.04	3.7730	3.7728	-0.7610	6.18	0.19	-0.750			
0.2352	15054.92	3.7700	3.7701	-0.7661	6.18	0.19	-0.750			
0.2376	15204.29	3.7670	3.7669	-0.7713	6.19	0.20	-0.750			
0.2399	15354.29	3.7640	3.7641	-0.7733	6.20	0.21	-0.750			
0.2423	15504.03	3.7610	3.7610	-0.7765	6.21	0.22	-0.750			
0.2446	15652.24	3.7580	3.7580	-0.7763	6.21	0.22	-0.750			
0.2469	15799.62	3.7550	3.7551	-0.7791	6.22	0.23	-0.750			
0.2492	15949.69	3.7520	3.7520	-0.7845	6.22	0.23	-0.750			
0.2516	16101.19	3.7490	3.7490	-0.7900	6.23	0.24	-0.750			
0.2540	16254.94	3.7460	3.7460	-0.7960	6.23	0.24	-0.750			
0.2564	16409.12	3.7430	3.7432	-0.7989	6.24	0.25	-0.750			
0.2588	16561.71	3.7400	3.7400	-0.7983	6.24	0.25	-0.750			
0.2612	16715.17	3.7370	3.7370	-0.8026	6.24	0.25	-0.750			
0.2636	16869.54	3.7340	3.7339	-0.8027	6.25	0.26	-0.750			
0.2660	17022.87	3.7310	3.7310	-0.8101	6.25	0.26	-0.750			
0.2684	17178.41	3.7280	3.7282	-0.8166	6.25	0.26	-0.750			
0.2709	17336.84	3.7250	3.7249	-0.8225	6.26	0.27	-0.750			
0.2734	17496.46	3.7220	3.7220	-0.8281	6.27	0.28	-0.750			
0.2759	17655.35	3.7190	3.7190	-0.8326	6.27	0.28	-0.750			
0.2784	17815.64	3.7160	3.7160	-0.8375	6.28	0.29	-0.750			
0.2809	17978.31	3.7130	3.7131	-0.8451	6.29	0.30	-0.750			
0.2834	18140.02	3.7100	3.7099	-0.8465	6.29	0.30	-0.750			
0.2860	18302.12	3.7070	3.7071	-0.8609	6.30	0.31	-0.750			
0.2886	18469.04	3.7040	3.7040	-0.8709	6.30	0.31	-0.750			
0.2912	18637.32	3.7010	3.7009	-0.8780	6.31	0.32	-0.750			
0.2939	18808.32	3.6980	3.6983	-0.8856	6.31	0.32	-0.750			
0.2965	18978.98	3.6950	3.6951	-0.8953	6.31	0.32	-0.750			
0.2993	19152.24	3.6920	3.6920	-0.8999	6.32	0.33	-0.750			
0.3020	19324.91	3.6890	3.6889	-0.9074	6.32	0.33	-0.750			
0.3047	19499.44	3.6860	3.6860	-0.9133	6.33	0.34	-0.750			
0.3074	19676.29	3.6830	3.6830	-0.9153	6.33	0.34	-0.750			
0.3102	19854.27	3.6800	3.6800	-0.9292	6.34	0.35	-0.750			
0.3130	20032.45	3.6770	3.6770	-0.9363	6.35	0.36	-0.750			
0.3158	20211.72	3.6740	3.6739	-0.9422	6.36	0.37	-0.750			
0.3187	20394.43	3.6710	3.6714	-0.9496	6.37	0.38	-0.750			
0.3215	20576.26	3.6680	3.6680	-0.9601	6.37	0.38	-0.750			
0.3244	20762.75	3.6650	3.6650	-0.9693	6.37	0.38	-0.750			
0.3273	20949.43	3.6620	3.6619	-0.9772	6.37	0.38	-0.750			
0.3303	21138.71	3.6590	3.6590	-0.9923	6.37	0.38	-0.750			
0.3333	21328.34	3.6560	3.6560	-0.9976	6.37	0.38	-0.750			
0.3363	21521.04	3.6530	3.6529	-1.0090	6.38	0.39	-0.750			
0.3393	21716.39	3.6500	3.6500	-1.0172	6.38	0.39	-0.750			
0.3424	21910.60	3.6470	3.6470	-1.0194	6.39	0.40	-0.750			
0.3455	22110.00	3.6440	3.6441	-1.0323	6.39	0.40	-0.750			
0.3486	22308.10	3.6410	3.6410	-1.0369	6.40	0.41	-0.750			
0.3517	22505.96	3.6380	3.6379	-1.0449	6.40	0.41	-0.750			
0.3548	22707.37	3.6350	3.6350	-1.0500	6.41	0.42	-0.750			
0.3580	22910.48	3.6320	3.6320	-1.0659	6.41	0.42	-0.750			
0.3612	23118.29	3.6290	3.6290	-1.0762	6.41	0.42	-0.750			
0.3645	23325.53	3.6260	3.6260	-1.0886	6.41	0.42	-0.750			
0.3677	23535.20	3.6230	3.6230	-1.0971	6.41	0.42	-0.750			
0.3710	23747.12	3.6200	3.6199	-1.1098	6.41	0.42	-0.750			
0.3744	23962.41	3.6170	3.6170	-1.1122	6.42	0.43	-0.750			
0.3778	24176.52	3.6140	3.6140	-1.1214	6.42	0.43	-0.750			
0.3811	24389.15	3.6110	3.6112	-1.1379	6.43	0.44	-0.750			
0.3846	24612.29	3.6080	3.6079	-1.1493	6.43	0.44	-0.750			
0.3880	24832.44	3.6050	3.6048	-1.1569	6.43	0.44	-0.750			
0.3915	25056.91	3.6020	3.6020	-1.1657	6.43	0.44	-0.750			
0.3950	25281.54	3.5990	3.5991	-1.1912	6.43	0.44	-0.750			
0.3987	25515.02	3.5960	3.5959	-1.1931	6.44	0.45	-0.750			
0.4022	25742.68	3.5930	3.5929	-1.1943	6.44	0.45	-0.750			
0.4058	25969.54	3.5900	3.5902	-1.2056	6.45	0.46	-0.750			
0.4095	26206.42	3.5870	3.5869	-1.2204	6.46	0.47	-0.750	0.464	1.056	
0.4131	26440.18	3.5840	3.5839	-1.2275	6.46	0.47	-0.750			
0.4168	26674.84	3.5810	3.5809	-1.2421	6.47	0.48	-0.750			
0.4205	26913.56	3.5780	3.5780	-1.2553	6.47	0.48	-0.750			
0.4244	27159.96	3.5750	3.5749	-1.2708	6.47	0.48	-0.750			
0.4282	27401.77	3.5720	3.5719	-1.2748	6.47	0.48	-0.750			
0.4320	27645.32	3.5690	3.5693	-1.2934	6.47	0.48	-0.750			
0.4359	27899.87	3.5660	3.5659	-1.3162	6.48	0.49	-0.750			
0.4399	28153.27	3.5630	3.5629	-1.3286	6.48	0.49	-0.750			
0.4439	28410.92	3.5600	3.5602	-1.3457	6.49	0.50	-0.750			
0.4480	28673.76	3.5570	3.5569	-1.3555	6.49	0.50	-0.750			
0.4521	28934.67	3.5540	3.5540	-1.3650	6.50	0.51	-0.750			
0.4562	29195.52	3.5510	3.5512	-1.3793	6.50	0.51	-0.750			
0.4603	29461.37	3.5480	3.5479	-1.3932	6.50	0.51	-0.750			
0.4645	29730.47	3.5450	3.5449	-1.4024	6.51	0.52	-0.750			
0.4688	30000.18	3.5420	3.5423	-1.4187	6.51	0.52	-0.750			
0.4730	30274.15	3.5390	3.5389	-1.4430	6.51	0.52	-0.750			
0.4774	30552.27	3.5360	3.5360	-1.4569	6.51	0.52	-0.750			
0.4818	30833.77	3.5330	3.5331	-1.4563	6.51	0.52	-0.750			
0.4862	31115.75	3.5300	3.5297	-1.4782	6.53	0.54	-0.750			
0.4906	31400.51	3.5270	3.5271	-1.4853	6.54	0.55	-0.750			
0.4951	31685.92	3.5240	3.5241	-1.4901	6.55	0.56	-0.750			
0.4996	31974.17	3.5210	3.5209	-1.4998	6.55	0.56	-0.750			
0.5040	32257.82	3.5180	3.5180	-1.4976	6.55	0.56	-0.750			
0.5086	32550.19	3.5150	3.5149	-1.5283	6.55	0.56	-0.750			
0.5133	32852.54	3.5120	3.5119	-1.5353	6.56	0.57	-0.750			
0.5179	33147.88	3.5090	3.5089	-1.5326	6.56	0.57	-0.750			
0.5225	33442.11	3.5060	3.5062	-1.5374	6.57	0.58	-0.750			
0.5272	33738.91	3.5030	3.5027	-1.5336	6.57	0.58	-0.750			
0.5317	34030.10	3.5000	3.5000	-1.5296	6.58	0.59	-0.750			
0.5362	34316.56	3.4970	3.4970	-1.5387	6.59	0.60	-0.750			
0.5408	34610.82	3.4940	3.4942	-1.5356	6.60	0.61	-0.750			
0.5456	34919.36	3.4910	3.4910	-1.5468	6.61	0.62	-0.750			
0.5502	35213.12	3.4880	3.4880	-1.5346	6.63	0.64	-0.750			
0.5548	35508.51	3.4850	3.4848	-1.5257	6.64	0.65	-0.750			
0.5594	35800.77	3.4820	3.4818	-1.5067	6.65	0.66	-0.750			
0.5639	36087.44	3.4790	3.4787	-1.5239	6.66	0.67	-0.750			
0.5685	36381.09	3.4760	3.4762	-1.5156	6.67	0.68	-0.750			
0.5731	36676.69	3.4730	3.4727	-1.5138	6.68	0.69	-0.750			
0.5776	36969.26	3.4700	3.4703	-1.5135	6.70	0.71	-0.750			
0.5822	37260.93	3.4670	3.4671	-1.4892	6.71	0.72	-0.750			
0.5866	37545.23	3.4640	3.4639	-1.4896	6.73	0.74	-0.750			
0.5911	37829.40	3.4610	3.4610	-1.4736	6.74	0.75	-0.750			
0.5954	38107.24	3.4580	3.4580	-1.4555	6.76	0.77	-0.750			
0.5999	38392.32	3.4550	3.4549	-1.4513	6.78	0.79	-0.750			
0.6042	38667.83	3.4520	3.4517	-1.4443	6.81	0.82	-0.750			
0.6085	38942.80	3.4490	3.4490	-1.4319	6.83	0.84	-0.750			
0.6128	39219.17	3.4460	3.4459	-1.4310	6.86	0.87	-0.750			
0.6170	39490.09	3.4430	3.4430	-1.4190	6.88	0.89	-0.750			
0.6213	39764.28	3.4400	3.4399	-1.4126	6.91	0.92	-0.750			
0.6256	40041.10	3.4370	3.4370	-1.3970	6.93	0.94	-0.750			
0.6298	40309.59	3.4340	3.4340	-1.3793	6.96	0.97	-0.750			
0.6339	40569.69	3.4310	3.4310	-1.3454	6.99	1.00	-0.750			
0.6379	40828.58	3.4280	3.4279	-1.3223	7.01	1.02	-0.750			
0.6418	41076.98	3.4250	3.4250	-1.2937	7.04	1.05	-0.750			
0.6456	41320.50	3.4220	3.4220	-1.2658	7.06	1.07	-0.750			
0.6495	41565.26	3.4190	3.4190	-1.2415	7.09	1.10	-0.750			
0.6532	41801.84	3.4160	3.4160	-1.2177	7.11	1.12	-0.750			
0.6567	42029.74	3.4130	3.4131	-1.1928	7.13	1.14	-0.750			
0.6603	42259.46	3.4100	3.4099	-1.1651	7.16	1.17	-0.750			
0.6638	42480.76	3.4070	3.4069	-1.1346	7.18	1.19	-0.750			
0.6671	42696.10	3.4040	3.4039	-1.1040	7.20	1.21	-0.750			
0.6704	42904.76	3.4010	3.4010	-1.0808	7.22	1.23	-0.750			
0.6736	43110.02	3.3980	3.3979	-1.0526	7.24	1.25	-0.750			
0.6767	43307.10	3.3950	3.3950	-1.0190	7.26	1.27	-0.750			
0.6797	43498.06	3.3920	3.3920	-0.9944	7.28	1.29	-0.750			
0.6827	43690.23	3.3890	3.3890	-0.9790	7.30	1.31	-0.750			
0.6856	43878.16	3.3860	3.3859	-0.9573	7.33	1.34	-0.750			
0.6885	44061.31	3.3830	3.3830	-0.9248	7.35	1.36	-0.750			
0.6912	44235.78	3.3800	3.3800	-0.8945	7.38	1.39	-0.750			
0.6938	44405.33	3.3770	3.3772	-0.8716	7.39	1.40	-0.750			
0.6964	44569.00	3.3740	3.3738	-0.8430	7.41	1.42	-0.750			
0.6988	44725.23	3.3710	3.3709	-0.8203	7.43	1.44	-0.750			
0.7012	44878.53	3.3680	3.3680	-0.7962	7.45	1.46	-0.750			
0.7037	45034.92	3.3650	3.3650	-0.7881	7.47	1.48	-0.750			
0.7060	45182.74	3.3620	3.3622	-0.7651	7.49	1.50	-0.750			
0.7082	45327.33	3.3590	3.3590	-0.7418	7.51	1.52	-0.750			
0.7104	45467.57	3.3560	3.3560	-0.7195	7.52	1.53	-0.750			
0.7125	45602.58	3.3530	3.3530	-0.6989	7.54	1.55	-0.750			
0.7146	45734.52	3.3500	3.3501	-0.6821	7.55	1.56	-0.750			
0.7166	45863.16	3.3470	3.3470	-0.6679	7.57	1.58	-0.750			
0.7186	45990.09	3.3440	3.3440	-0.6545	7.58	1.59	-0.750			
0.7205	46113.72	3.3410	3.3410	-0.6477	7.59	1.60	-0.750			
0.7225	46238.28	3.3380	3.3380	-0.6534	7.61	1.62	-0.750			
