Ah_balance (normalized)	Ah_balance (mAh)	Voltage - fit (V)	Voltage -  interpolate (V)	dQ/dV (1/V)	Temperature (°C)	Temperature - diff (°C)	Current (C)	R_DC 0ms (mOhm)	R_DC 50ms (mOhm)	R_DC 50 ms PEC (mOhm)
0.1790	11453.16	4.0820	4.0820	0.8057	7.60	1.61	0.750			
0.1813	11605.28	4.0790	4.0791	0.7839	7.59	1.60	0.750			
0.1837	11754.10	4.0760	4.0759	0.7745	7.58	1.59	0.750			
0.1859	11900.43	4.0730	4.0731	0.7733	7.58	1.59	0.750			
0.1882	12047.58	4.0700	4.0701	0.7777	7.57	1.58	0.750			
0.1906	12197.01	4.0670	4.0670	0.7823	7.56	1.57	0.750			
0.1930	12350.12	4.0640	4.0639	0.7787	7.55	1.56	0.750			
0.1953	12499.21	4.0610	4.0612	0.7821	7.55	1.56	0.750			
0.1976	12649.38	4.0580	4.0581	0.7867	7.54	1.55	0.750			
0.2000	12800.21	4.0550	4.0547	0.7896	7.53	1.54	0.750			
0.2023	12949.52	4.0520	4.0521	0.7870	7.53	1.54	0.750			
0.2047	13101.49	4.0490	4.0490	0.7934	7.52	1.53	0.750			
0.2071	13257.06	4.0460	4.0461	0.8049	7.52	1.53	0.750			
0.2096	13412.42	4.0430	4.0429	0.8028	7.52	1.53	0.750			
0.2120	13566.85	4.0400	4.0400	0.8052	7.51	1.52	0.750			
0.2144	13720.95	4.0370	4.0371	0.8094	7.50	1.51	0.750			
0.2169	13879.99	4.0340	4.0340	0.8059	7.49	1.50	0.750			
0.2193	14033.64	4.0310	4.0310	0.8119	7.48	1.49	0.750			
0.2217	14188.85	4.0280	4.0281	0.8145	7.47	1.48	0.750			
0.2241	14343.21	4.0250	4.0252	0.8207	7.46	1.47	0.750			
0.2266	14502.32	4.0220	4.0220	0.8283	7.46	1.47	0.750			
0.2292	14666.03	4.0190	4.0190	0.8202	7.45	1.46	0.750			
0.2316	14822.82	4.0160	4.0160	0.8215	7.44	1.45	0.750			
0.2341	14980.39	4.0130	4.0132	0.8350	7.44	1.45	0.750			
0.2365	15137.50	4.0100	4.0102	0.8322	7.43	1.44	0.750			
0.2390	15297.15	4.0070	4.0071	0.8362	7.43	1.44	0.750			
0.2415	15458.97	4.0040	4.0040	0.8359	7.42	1.43	0.750			
0.2441	15621.10	4.0010	4.0012	0.8452	7.41	1.42	0.750			
0.2466	15784.96	3.9980	3.9981	0.8497	7.40	1.41	0.750			
0.2492	15947.28	3.9950	3.9950	0.8506	7.39	1.40	0.750			
0.2517	16110.05	3.9920	3.9920	0.8517	7.39	1.40	0.750			
0.2543	16275.82	3.9890	3.9890	0.8502	7.38	1.39	0.750			
0.2569	16438.93	3.9860	3.9861	0.8619	7.37	1.38	0.750			
0.2595	16605.40	3.9830	3.9831	0.8660	7.36	1.37	0.750			
0.2621	16771.91	3.9800	3.9798	0.8717	7.35	1.36	0.750			
0.2647	16939.76	3.9770	3.9771	0.8761	7.34	1.35	0.750			
0.2673	17108.90	3.9740	3.9741	0.8735	7.34	1.35	0.750			
0.2700	17277.76	3.9710	3.9710	0.8781	7.33	1.34	0.750			
0.2726	17445.19	3.9680	3.9681	0.8797	7.32	1.33	0.750			
0.2752	17615.00	3.9650	3.9645	0.8904	7.31	1.32	0.750			
0.2779	17786.24	3.9620	3.9620	0.8953	7.30	1.31	0.750			
0.2806	17959.57	3.9590	3.9591	0.9017	7.29	1.30	0.750			
0.2834	18135.27	3.9560	3.9560	0.9110	7.28	1.29	0.750			
0.2861	18311.82	3.9530	3.9530	0.9138	7.28	1.29	0.750			
0.2888	18485.43	3.9500	3.9500	0.9113	7.27	1.28	0.750			
0.2916	18660.24	3.9470	3.9471	0.9077	7.26	1.27	0.750			
0.2943	18833.40	3.9440	3.9441	0.9133	7.25	1.26	0.750			
0.2970	19008.79	3.9410	3.9410	0.9225	7.24	1.25	0.750			
0.2998	19186.06	3.9380	3.9377	0.9305	7.23	1.24	0.750			
0.3026	19368.31	3.9350	3.9350	0.9319	7.22	1.23	0.750			
0.3054	19547.10	3.9320	3.9321	0.9447	7.21	1.22	0.750			
0.3083	19728.68	3.9290	3.9290	0.9617	7.20	1.21	0.750			
0.3112	19915.68	3.9260	3.9262	0.9719	7.19	1.20	0.750			
0.3141	20099.64	3.9230	3.9230	0.9762	7.17	1.18	0.750			
0.3170	20288.97	3.9200	3.9202	0.9802	7.16	1.17	0.750			
0.3200	20478.52	3.9170	3.9171	0.9911	7.15	1.16	0.750			
0.3230	20669.40	3.9140	3.9140	1.0017	7.14	1.15	0.750			
0.3260	20863.07	3.9110	3.9112	1.0006	7.13	1.14	0.750			
0.3290	21055.22	3.9080	3.9081	1.0123	7.11	1.12	0.750			
0.3321	21252.91	3.9050	3.9050	1.0252	7.10	1.11	0.750			
0.3352	21450.58	3.9020	3.9021	1.0340	7.08	1.09	0.750			
0.3383	21648.70	3.8990	3.8991	1.0435	7.07	1.08	0.750			
0.3414	21847.88	3.8960	3.8960	1.0428	7.06	1.07	0.750			
0.3445	22047.62	3.8930	3.8931	1.0528	7.05	1.06	0.750			
0.3477	22250.80	3.8900	3.8902	1.0697	7.04	1.05	0.750			
0.3509	22458.61	3.8870	3.8866	1.0762	7.03	1.04	0.750			
0.3542	22666.50	3.8840	3.8842	1.0976	7.01	1.02	0.750			
0.3575	22878.01	3.8810	3.8811	1.1136	7.00	1.01	0.750			
0.3609	23095.57	3.8780	3.8780	1.1316	6.98	0.99	0.750			
0.3643	23314.22	3.8750	3.8751	1.1282	6.97	0.98	0.750			
0.3677	23531.50	3.8720	3.8721	1.1474	6.95	0.96	0.750			
0.3711	23752.86	3.8690	3.8691	1.1605	6.94	0.95	0.750			
0.3747	23979.22	3.8660	3.8658	1.1733	6.93	0.94	0.750			
0.3782	24202.10	3.8630	3.8630	1.1888	6.92	0.93	0.750			
0.3817	24431.26	3.8600	3.8601	1.2103	6.90	0.91	0.750			
0.3854	24666.47	3.8570	3.8571	1.2382	6.88	0.89	0.750			
0.3892	24906.93	3.8540	3.8540	1.2417	6.87	0.88	0.750			
0.3929	25146.74	3.8510	3.8510	1.2607	6.85	0.86	0.750			
0.3967	25390.67	3.8480	3.8481	1.2823	6.84	0.85	0.750			
0.4006	25635.31	3.8450	3.8448	1.3188	6.83	0.84	0.750			
0.4045	25887.89	3.8420	3.8420	1.3528	6.81	0.82	0.750			
0.4087	26158.34	3.8390	3.8389	1.3760	6.79	0.80	0.750			
0.4129	26426.06	3.8360	3.8360	1.4125	6.77	0.78	0.750	0.375	0.912	
0.4173	26706.13	3.8330	3.8331	1.4186	6.75	0.76	0.750			
0.4216	26981.62	3.8300	3.8301	1.4473	6.73	0.74	0.750			
0.4259	27257.24	3.8270	3.8268	1.4606	6.71	0.72	0.750			
0.4302	27532.04	3.8240	3.8242	1.4709	6.69	0.70	0.750			
0.4347	27818.37	3.8210	3.8212	1.5092	6.66	0.67	0.750			
0.4392	28111.37	3.8180	3.8177	1.5622	6.64	0.65	0.750			
0.4440	28415.72	3.8150	3.8150	1.6048	6.62	0.63	0.750			
0.4490	28736.35	3.8120	3.8119	1.6225	6.60	0.61	0.750			
0.4539	29051.85	3.8090	3.8092	1.6373	6.59	0.60	0.750			
0.4588	29360.22	3.8060	3.8062	1.6625	6.57	0.58	0.750			
0.4637	29679.07	3.8030	3.8027	1.7027	6.55	0.56	0.750			
0.4688	30005.39	3.8000	3.7998	1.7350	6.52	0.53	0.750			
0.4743	30354.31	3.7970	3.7970	1.7598	6.49	0.50	0.750			
0.4797	30700.54	3.7940	3.7939	1.7872	6.48	0.49	0.750			
0.4849	31036.05	3.7910	3.7913	1.8502	6.46	0.47	0.750			
0.4905	31392.46	3.7880	3.7880	1.8291	6.44	0.45	0.750			
0.4961	31750.22	3.7850	3.7849	1.8730	6.42	0.43	0.750			
0.5017	32109.79	3.7820	3.7824	1.9236	6.40	0.41	0.750			
0.5075	32481.37	3.7790	3.7792	1.9123	6.38	0.39	0.750			
0.5133	32849.44	3.7760	3.7760	1.9571	6.36	0.37	0.750			
0.5193	33234.31	3.7730	3.7726	1.9988	6.34	0.35	0.750			
0.5253	33617.26	3.7700	3.7699	2.0305	6.32	0.33	0.750			
0.5314	34012.51	3.7670	3.7667	2.0052	6.30	0.31	0.750			
0.5375	34399.92	3.7640	3.7638	2.0256	6.28	0.29	0.750			
0.5433	34773.93	3.7610	3.7610	2.2135	6.27	0.28	0.750			
0.5504	35224.61	3.7580	3.7578	2.3245	6.25	0.26	0.750			
0.5581	35715.42	3.7550	3.7553	2.4477	6.22	0.23	0.750			
0.5651	36166.71	3.7520	3.7519	2.3260	6.20	0.21	0.750			
0.5715	36573.59	3.7490	3.7491	2.2051	6.17	0.18	0.750			
0.5782	37002.23	3.7460	3.7460	2.2783	6.15	0.16	0.750			
0.5853	37459.03	3.7430	3.7430	2.3880	6.13	0.14	0.750			
0.5927	37930.18	3.7400	3.7399	2.4064	6.11	0.12	0.750			
0.5998	38385.75	3.7370	3.7371	2.4321	6.09	0.10	0.750			
0.6071	38855.17	3.7340	3.7340	2.4318	6.07	0.08	0.750			
0.6145	39325.45	3.7310	3.7311	2.4817	6.04	0.05	0.750			
0.6220	39805.29	3.7280	3.7279	2.4996	6.02	0.03	0.750			
0.6296	40291.33	3.7250	3.7249	2.4807	6.00	0.01	0.750			
0.6372	40781.38	3.7220	3.7219	2.4447	5.99	0.00	0.750			
0.6443	41238.26	3.7190	3.7188	2.3072	5.98	-0.01	0.750			
0.6509	41660.49	3.7160	3.7158	2.1395	5.97	-0.02	0.750			
0.6571	42055.40	3.7130	3.7131	1.9435	5.96	-0.03	0.750			
0.6627	42414.21	3.7100	3.7100	1.7372	5.96	-0.03	0.750			
0.6676	42727.36	3.7070	3.7070	1.5591	5.95	-0.04	0.750			
0.6720	43006.64	3.7040	3.7040	1.3990	5.94	-0.05	0.750			
0.6758	43250.35	3.7010	3.7010	1.2549	5.93	-0.06	0.750			
0.6792	43468.76	3.6980	3.6980	1.1392	5.93	-0.06	0.750			
0.6824	43672.79	3.6950	3.6950	1.0522	5.94	-0.05	0.750			
0.6854	43865.35	3.6920	3.6921	0.9967	5.94	-0.05	0.750			
0.6882	44047.19	3.6890	3.6889	0.9438	5.94	-0.05	0.750			
0.6910	44224.63	3.6860	3.6860	0.8984	5.94	-0.05	0.750			
0.6936	44392.30	3.6830	3.6831	0.8685	5.94	-0.05	0.750			
0.6962	44554.49	3.6800	3.6800	0.8463	5.95	-0.04	0.750			
0.6987	44715.16	3.6770	3.6771	0.8140	5.95	-0.04	0.750			
0.7011	44870.16	3.6740	3.6740	0.7797	5.95	-0.04	0.750			
0.7034	45017.32	3.6710	3.6710	0.7445	5.96	-0.03	0.750			
0.7056	45160.05	3.6680	3.6684	0.7036	5.96	-0.03	0.750			
0.7077	45291.14	3.6650	3.6649	0.6672	5.96	-0.03	0.750			
0.7096	45412.76	3.6620	3.6620	0.6228	5.96	-0.03	0.750			
0.7114	45527.18	3.6590	3.6590	0.5895	5.97	-0.02	0.750			
0.7131	45636.93	3.6560	3.6558	0.5608	5.97	-0.02	0.750			
0.7147	45742.62	3.6530	3.6530	0.5280	5.97	-0.02	0.750			
0.7163	45842.38	3.6500	3.6500	0.4954	5.98	-0.01	0.750			
0.7177	45935.37	3.6470	3.6470	0.4592	5.98	-0.01	0.750			
0.7190	46019.03	3.6440	3.6440	0.4201	5.98	-0.01	0.750			
0.7202	46095.72	3.6410	3.6410	0.3832	5.98	-0.01	0.750			
0.7213	46165.40	3.6380	3.6379	0.3471	5.98	-0.01	0.750			
0.7223	46228.52	3.6350	3.6350	0.3112	5.99	-0.00	0.750			
0.7232	46285.10	3.6320	3.6321	0.2782	5.99	-0.00	0.750			
0.7240	46336.57	3.6290	3.6290	0.2423	5.99	-0.00	0.750			
0.7247	46379.95	3.6260	3.6259	0.2061	5.99	-0.00	0.750			
0.7252	46415.93	3.6230	3.6230	0.1686	5.99	0.00	0.750			
0.7257	46445.13	3.6200	3.6203	0.1313	5.99	0.00	0.750			
0.7261	46467.50	3.6170	3.6174	0.0927	5.99	0.00	0.750			
0.7263	46481.43	3.6140	3.6147	0.0525	5.99	0.00	0.750			
0.7264	46488.28	3.6110	3.6119	-0.0024	5.99	0.00	0.750			
