Ah_balance (normalized)	Ah_balance (mAh)	Voltage - fit (V)	Voltage -  interpolate (V)	dQ/dV (1/V)	Temperature (°C)	Temperature - diff (°C)	Current (C)	R_DC 0ms (mOhm)	R_DC 50ms (mOhm)	R_DC 50 ms PEC (mOhm)
0.0959	6138.38	4.0050	4.0044	-0.0519	5.99	0.00	-0.750			
0.0961	6152.68	4.0020	4.0016	-0.0895	5.99	0.00	-0.750			
0.0965	6173.52	3.9990	3.9989	-0.1187	5.99	0.00	-0.750			
0.0969	6199.36	3.9960	3.9959	-0.1442	5.99	0.00	-0.750			
0.0973	6229.41	3.9930	3.9931	-0.1691	5.99	-0.00	-0.750			
0.0979	6264.35	3.9900	3.9901	-0.1934	5.99	-0.00	-0.750			
0.0985	6304.33	3.9870	3.9870	-0.2190	5.99	-0.00	-0.750			
0.0992	6348.17	3.9840	3.9840	-0.2428	5.99	-0.00	-0.750			
0.1000	6397.90	3.9810	3.9810	-0.2655	5.98	-0.01	-0.750			
0.1008	6451.16	3.9780	3.9780	-0.2896	5.98	-0.01	-0.750			
0.1017	6509.23	3.9750	3.9750	-0.3133	5.98	-0.01	-0.750			
0.1027	6572.03	3.9720	3.9721	-0.3354	5.98	-0.01	-0.750			
0.1037	6638.33	3.9690	3.9689	-0.3581	5.97	-0.02	-0.750			
0.1048	6708.36	3.9660	3.9661	-0.3831	5.97	-0.02	-0.750			
0.1060	6783.97	3.9630	3.9630	-0.4074	5.97	-0.02	-0.750			
0.1073	6865.23	3.9600	3.9600	-0.4316	5.97	-0.02	-0.750			
0.1086	6951.28	3.9570	3.9569	-0.4535	5.96	-0.03	-0.750			
0.1100	7040.73	3.9540	3.9543	-0.4765	5.96	-0.03	-0.750			
0.1115	7135.20	3.9510	3.9510	-0.4983	5.96	-0.03	-0.750			
0.1130	7232.24	3.9480	3.9479	-0.5140	5.96	-0.03	-0.750			
0.1146	7331.39	3.9450	3.9450	-0.5320	5.96	-0.03	-0.750			
0.1162	7435.79	3.9420	3.9421	-0.5541	5.95	-0.04	-0.750			
0.1179	7545.13	3.9390	3.9387	-0.5746	5.95	-0.04	-0.750			
0.1197	7658.62	3.9360	3.9360	-0.5884	5.95	-0.04	-0.750			
0.1215	7774.40	3.9330	3.9328	-0.5960	5.95	-0.04	-0.750			
0.1233	7891.11	3.9300	3.9300	-0.6103	5.95	-0.04	-0.750			
0.1251	8009.38	3.9270	3.9270	-0.6215	5.95	-0.04	-0.750			
0.1270	8127.09	3.9240	3.9240	-0.6279	5.95	-0.04	-0.750			
0.1289	8247.17	3.9210	3.9209	-0.6418	5.95	-0.04	-0.750			
0.1308	8374.22	3.9180	3.9180	-0.6568	5.95	-0.04	-0.750			
0.1329	8503.03	3.9150	3.9149	-0.6668	5.95	-0.04	-0.750			
0.1348	8629.42	3.9120	3.9124	-0.6910	5.95	-0.04	-0.750			
0.1369	8759.67	3.9090	3.9091	-0.7132	5.95	-0.04	-0.750			
0.1391	8899.66	3.9060	3.9058	-0.7354	5.95	-0.04	-0.750			
0.1414	9046.68	3.9030	3.9025	-0.7433	5.96	-0.03	-0.750			
0.1437	9195.85	3.9000	3.9004	-0.7549	5.96	-0.03	-0.750			
0.1460	9342.85	3.8970	3.8970	-0.7503	5.96	-0.03	-0.750			
0.1483	9490.69	3.8940	3.8940	-0.7431	5.96	-0.03	-0.750			
0.1504	9628.44	3.8910	3.8908	-0.7255	5.97	-0.02	-0.750			
0.1525	9759.84	3.8880	3.8881	-0.7164	5.97	-0.02	-0.750			
0.1547	9897.81	3.8850	3.8850	-0.7157	5.98	-0.01	-0.750			
0.1568	10036.31	3.8820	3.8820	-0.7230	5.98	-0.01	-0.750			
0.1590	10175.10	3.8790	3.8790	-0.7252	5.99	-0.00	-0.750			
0.1612	10314.66	3.8760	3.8760	-0.7267	5.99	0.00	-0.750			
0.1634	10456.15	3.8730	3.8730	-0.7307	6.00	0.01	-0.750			
0.1656	10595.80	3.8700	3.8700	-0.7361	6.00	0.01	-0.750			
0.1678	10736.99	3.8670	3.8670	-0.7325	6.00	0.01	-0.750			
0.1700	10880.63	3.8640	3.8639	-0.7361	6.01	0.02	-0.750			
0.1722	11020.45	3.8610	3.8612	-0.7356	6.01	0.02	-0.750			
0.1744	11162.45	3.8580	3.8580	-0.7354	6.02	0.03	-0.750			
0.1766	11302.23	3.8550	3.8550	-0.7422	6.02	0.03	-0.750			
0.1788	11444.90	3.8520	3.8520	-0.7391	6.03	0.04	-0.750			
0.1811	11587.93	3.8490	3.8490	-0.7411	6.04	0.05	-0.750			
0.1833	11730.77	3.8460	3.8460	-0.7446	6.05	0.06	-0.750			
0.1855	11873.93	3.8430	3.8430	-0.7455	6.05	0.06	-0.750			
0.1877	12015.48	3.8400	3.8400	-0.7464	6.05	0.06	-0.750			
0.1900	12159.16	3.8370	3.8370	-0.7484	6.06	0.07	-0.750			
0.1922	12302.10	3.8340	3.8340	-0.7479	6.06	0.07	-0.750			
0.1945	12449.25	3.8310	3.8309	-0.7515	6.07	0.08	-0.750			
0.1968	12593.33	3.8280	3.8281	-0.7496	6.07	0.08	-0.750			
0.1990	12735.81	3.8250	3.8250	-0.7465	6.08	0.09	-0.750			
0.2012	12877.69	3.8220	3.8220	-0.7491	6.08	0.09	-0.750			
0.2035	13022.16	3.8190	3.8189	-0.7478	6.09	0.10	-0.750			
0.2057	13165.82	3.8160	3.8159	-0.7484	6.10	0.11	-0.750			
0.2080	13310.50	3.8130	3.8130	-0.7512	6.10	0.11	-0.750			
0.2102	13455.40	3.8100	3.8102	-0.7493	6.11	0.12	-0.750			
0.2125	13599.61	3.8070	3.8069	-0.7466	6.11	0.12	-0.750			
0.2147	13741.31	3.8040	3.8040	-0.7511	6.12	0.13	-0.750			
0.2169	13883.00	3.8010	3.8010	-0.7504	6.12	0.13	-0.750			
0.2192	14029.66	3.7980	3.7979	-0.7552	6.13	0.14	-0.750			
0.2215	14175.87	3.7950	3.7950	-0.7555	6.13	0.14	-0.750			
0.2238	14320.56	3.7920	3.7921	-0.7559	6.13	0.14	-0.750			
0.2260	14466.21	3.7890	3.7890	-0.7581	6.14	0.15	-0.750			
0.2283	14611.53	3.7860	3.7861	-0.7569	6.15	0.16	-0.750			
0.2306	14755.29	3.7830	3.7829	-0.7553	6.16	0.17	-0.750			
0.2328	14901.20	3.7800	3.7801	-0.7574	6.16	0.17	-0.750			
0.2351	15047.47	3.7770	3.7771	-0.7621	6.17	0.18	-0.750			
0.2374	15193.45	3.7740	3.7740	-0.7660	6.18	0.19	-0.750			
0.2397	15340.53	3.7710	3.7710	-0.7672	6.19	0.20	-0.750			
0.2420	15487.23	3.7680	3.7680	-0.7695	6.19	0.20	-0.750			
0.2443	15636.33	3.7650	3.7650	-0.7736	6.20	0.21	-0.750			
0.2466	15785.31	3.7620	3.7620	-0.7753	6.21	0.22	-0.750			
0.2490	15934.34	3.7590	3.7590	-0.7775	6.21	0.22	-0.750			
0.2513	16082.26	3.7560	3.7560	-0.7818	6.22	0.23	-0.750			
0.2536	16232.63	3.7530	3.7530	-0.7840	6.22	0.23	-0.750			
0.2560	16384.45	3.7500	3.7499	-0.7875	6.22	0.23	-0.750			
0.2584	16536.61	3.7470	3.7470	-0.7900	6.23	0.24	-0.750			
0.2608	16689.07	3.7440	3.7441	-0.7916	6.23	0.24	-0.750			
0.2631	16839.59	3.7410	3.7410	-0.7988	6.24	0.25	-0.750			
0.2655	16993.25	3.7380	3.7380	-0.8027	6.25	0.26	-0.750			
0.2679	17147.00	3.7350	3.7350	-0.8003	6.26	0.27	-0.750			
0.2703	17301.76	3.7320	3.7320	-0.8083	6.26	0.27	-0.750			
0.2728	17457.76	3.7290	3.7291	-0.8169	6.27	0.28	-0.750			
0.2752	17615.16	3.7260	3.7258	-0.8205	6.27	0.28	-0.750			
0.2777	17772.54	3.7230	3.7230	-0.8233	6.28	0.29	-0.750			
0.2802	17930.09	3.7200	3.7201	-0.8247	6.28	0.29	-0.750			
0.2826	18089.32	3.7170	3.7171	-0.8361	6.29	0.30	-0.750			
0.2852	18250.54	3.7140	3.7140	-0.8439	6.29	0.30	-0.750			
0.2877	18410.10	3.7110	3.7109	-0.8525	6.29	0.30	-0.750			
0.2903	18576.25	3.7080	3.7080	-0.8591	6.30	0.31	-0.750			
0.2929	18743.88	3.7050	3.7050	-0.8685	6.30	0.31	-0.750			
0.2955	18911.92	3.7020	3.7020	-0.8748	6.31	0.32	-0.750			
0.2981	19081.48	3.6990	3.6991	-0.8792	6.31	0.32	-0.750			
0.3008	19248.78	3.6960	3.6959	-0.8806	6.32	0.33	-0.750			
0.3034	19417.97	3.6930	3.6930	-0.8886	6.32	0.33	-0.750			
0.3060	19586.24	3.6900	3.6901	-0.8952	6.32	0.33	-0.750			
0.3088	19760.21	3.6870	3.6870	-0.9119	6.33	0.34	-0.750			
0.3115	19936.31	3.6840	3.6839	-0.9236	6.33	0.34	-0.750			
0.3143	20116.30	3.6810	3.6810	-0.9305	6.34	0.35	-0.750			
0.3171	20296.73	3.6780	3.6780	-0.9385	6.34	0.35	-0.750			
0.3200	20477.63	3.6750	3.6750	-0.9427	6.35	0.36	-0.750			
0.3228	20658.63	3.6720	3.6721	-0.9506	6.35	0.36	-0.750			
0.3256	20841.28	3.6690	3.6689	-0.9626	6.36	0.37	-0.750			
0.3285	21026.03	3.6660	3.6660	-0.9717	6.36	0.37	-0.750			
0.3315	21214.89	3.6630	3.6631	-0.9838	6.36	0.37	-0.750			
0.3345	21407.52	3.6600	3.6601	-0.9956	6.37	0.38	-0.750			
0.3375	21599.04	3.6570	3.6569	-1.0047	6.38	0.39	-0.750			
0.3405	21791.93	3.6540	3.6540	-1.0136	6.39	0.40	-0.750			
0.3435	21985.90	3.6510	3.6509	-1.0242	6.40	0.41	-0.750			
0.3466	22183.41	3.6480	3.6481	-1.0326	6.41	0.42	-0.750			
0.3498	22384.81	3.6450	3.6449	-1.0468	6.41	0.42	-0.750			
0.3529	22586.30	3.6420	3.6420	-1.0586	6.42	0.43	-0.750			
0.3561	22791.79	3.6390	3.6390	-1.0681	6.42	0.43	-0.750			
0.3593	22996.66	3.6360	3.6360	-1.0751	6.43	0.44	-0.750			
0.3626	23204.94	3.6330	3.6330	-1.0896	6.43	0.44	-0.750			
0.3659	23416.34	3.6300	3.6300	-1.0958	6.43	0.44	-0.750			
0.3692	23628.82	3.6270	3.6269	-1.1041	6.43	0.44	-0.750			
0.3725	23839.02	3.6240	3.6242	-1.1162	6.43	0.44	-0.750			
0.3759	24054.91	3.6210	3.6210	-1.1250	6.44	0.45	-0.750			
0.3793	24272.57	3.6180	3.6179	-1.1351	6.45	0.46	-0.750			
0.3827	24492.81	3.6150	3.6149	-1.1378	6.46	0.47	-0.750			
0.3861	24712.18	3.6120	3.6121	-1.1531	6.47	0.48	-0.750			
0.3896	24934.67	3.6090	3.6090	-1.1612	6.48	0.49	-0.750			
0.3931	25157.02	3.6060	3.6060	-1.1679	6.48	0.49	-0.750			
0.3965	25377.02	3.6030	3.6030	-1.1812	6.49	0.50	-0.750			
0.4001	25609.39	3.6000	3.6000	-1.2088	6.49	0.50	-0.750			
0.4038	25845.01	3.5970	3.5968	-1.2270	6.50	0.51	-0.750			
0.4075	26081.66	3.5940	3.5939	-1.2473	6.51	0.52	-0.750			
0.4113	26323.52	3.5910	3.5916	-1.2587	6.51	0.52	-0.750	0.473	1.083	
0.4152	26570.91	3.5880	3.5879	-1.2690	6.52	0.53	-0.750			
0.4190	26814.80	3.5850	3.5848	-1.2760	6.52	0.53	-0.750			
0.4228	27056.06	3.5820	3.5823	-1.2757	6.53	0.54	-0.750			
0.4266	27304.06	3.5790	3.5789	-1.2912	6.54	0.55	-0.750			
0.4305	27551.95	3.5760	3.5760	-1.3035	6.54	0.55	-0.750			
0.4344	27802.30	3.5730	3.5729	-1.3172	6.55	0.56	-0.750			
0.4384	28056.56	3.5700	3.5700	-1.3375	6.56	0.57	-0.750			
0.4424	28315.78	3.5670	3.5670	-1.3516	6.56	0.57	-0.750			
0.4465	28576.20	3.5640	3.5641	-1.3692	6.57	0.58	-0.750			
0.4507	28842.64	3.5610	3.5609	-1.3850	6.58	0.59	-0.750			
0.4548	29109.80	3.5580	3.5579	-1.3983	6.58	0.59	-0.750			
0.4591	29379.41	3.5550	3.5551	-1.4171	6.59	0.60	-0.750			
0.4633	29652.75	3.5520	3.5519	-1.4292	6.60	0.61	-0.750			
0.4677	29929.65	3.5490	3.5489	-1.4440	6.60	0.61	-0.750			
0.4720	30209.25	3.5460	3.5462	-1.4574	6.61	0.62	-0.750			
0.4764	30488.32	3.5430	3.5430	-1.4722	6.62	0.63	-0.750			
0.4809	30776.88	3.5400	3.5400	-1.4843	6.62	0.63	-0.750			
0.4853	31062.14	3.5370	3.5370	-1.5056	6.63	0.64	-0.750			
0.4899	31354.71	3.5340	3.5341	-1.5196	6.64	0.65	-0.750			
0.4945	31648.18	3.5310	3.5309	-1.5263	6.65	0.66	-0.750			
0.4991	31940.03	3.5280	3.5280	-1.5380	6.66	0.67	-0.750			
0.5037	32238.82	3.5250	3.5250	-1.5408	6.68	0.69	-0.750			
0.5083	32532.95	3.5220	3.5219	-1.5456	6.69	0.70	-0.750			
0.5129	32827.05	3.5190	3.5190	-1.5514	6.70	0.71	-0.750			
0.5177	33131.06	3.5160	3.5160	-1.5676	6.70	0.71	-0.750			
0.5224	33431.61	3.5130	3.5132	-1.5850	6.71	0.72	-0.750			
0.5271	33736.65	3.5100	3.5098	-1.5844	6.73	0.74	-0.750			
0.5320	34046.33	3.5070	3.5071	-1.5980	6.74	0.75	-0.750			
0.5369	34360.16	3.5040	3.5039	-1.6090	6.75	0.76	-0.750			
0.5418	34674.10	3.5010	3.5009	-1.5948	6.76	0.77	-0.750			
0.5466	34981.42	3.4980	3.4982	-1.5688	6.77	0.78	-0.750			
0.5512	35279.48	3.4950	3.4950	-1.5558	6.78	0.79	-0.750			
0.5558	35573.40	3.4920	3.4918	-1.5685	6.80	0.81	-0.750			
0.5605	35868.96	3.4890	3.4892	-1.5607	6.81	0.82	-0.750			
0.5651	36163.56	3.4860	3.4857	-1.5752	6.83	0.84	-0.750			
0.5698	36468.24	3.4830	3.4827	-1.5793	6.84	0.85	-0.750			
0.5746	36777.42	3.4800	3.4798	-1.5817	6.86	0.87	-0.750			
0.5796	37091.81	3.4770	3.4768	-1.6064	6.87	0.88	-0.750			
0.5843	37394.37	3.4740	3.4742	-1.5685	6.89	0.90	-0.750			
0.5889	37688.93	3.4710	3.4710	-1.5531	6.90	0.91	-0.750			
0.5936	37992.22	3.4680	3.4680	-1.5534	6.92	0.93	-0.750			
0.5983	38289.32	3.4650	3.4651	-1.5206	6.93	0.94	-0.750			
0.6029	38584.30	3.4620	3.4618	-1.5112	6.95	0.96	-0.750			
0.6074	38875.10	3.4590	3.4590	-1.4893	6.97	0.98	-0.750			
0.6118	39156.30	3.4560	3.4558	-1.4669	6.99	1.00	-0.750			
0.6162	39436.20	3.4530	3.4530	-1.4509	7.01	1.02	-0.750			
0.6204	39706.07	3.4500	3.4499	-1.4280	7.02	1.03	-0.750			
0.6247	39982.00	3.4470	3.4470	-1.4223	7.04	1.05	-0.750			
0.6291	40260.70	3.4440	3.4440	-1.4201	7.05	1.06	-0.750			
0.6333	40532.21	3.4410	3.4410	-1.4050	7.07	1.08	-0.750			
0.6375	40801.21	3.4380	3.4379	-1.3800	7.08	1.09	-0.750			
0.6417	41065.86	3.4350	3.4350	-1.3574	7.10	1.11	-0.750			
0.6457	41323.99	3.4320	3.4320	-1.3306	7.12	1.13	-0.750			
0.6496	41575.92	3.4290	3.4290	-1.3033	7.14	1.15	-0.750			
0.6535	41824.63	3.4260	3.4260	-1.2796	7.15	1.16	-0.750			
0.6573	42067.78	3.4230	3.4230	-1.2471	7.16	1.17	-0.750			
0.6610	42303.53	3.4200	3.4201	-1.2219	7.18	1.19	-0.750			
0.6647	42539.63	3.4170	3.4170	-1.1982	7.19	1.20	-0.750			
0.6682	42766.15	3.4140	3.4140	-1.1656	7.21	1.22	-0.750			
0.6717	42986.10	3.4110	3.4110	-1.1366	7.23	1.24	-0.750			
0.6750	43201.04	3.4080	3.4080	-1.1133	7.25	1.26	-0.750			
0.6783	43412.41	3.4050	3.4049	-1.0851	7.26	1.27	-0.750			
0.6815	43619.11	3.4020	3.4020	-1.0589	7.28	1.29	-0.750			
0.6847	43818.86	3.3990	3.3992	-1.0277	7.30	1.31	-0.750			
0.6877	44015.70	3.3960	3.3960	-1.0097	7.32	1.33	-0.750			
0.6907	44206.80	3.3930	3.3930	-0.9800	7.33	1.34	-0.750			
0.6936	44390.81	3.3900	3.3899	-0.9506	7.35	1.36	-0.750			
0.6964	44571.71	3.3870	3.3870	-0.9274	7.37	1.38	-0.750			
0.6992	44746.52	3.3840	3.3841	-0.9055	7.38	1.39	-0.750			
0.7018	44918.25	3.3810	3.3810	-0.8808	7.40	1.41	-0.750			
0.7044	45084.30	3.3780	3.3780	-0.8574	7.42	1.43	-0.750			
0.7070	45246.09	3.3750	3.3750	-0.8304	7.43	1.44	-0.750			
0.7094	45404.61	3.3720	3.3722	-0.8103	7.45	1.46	-0.750			
0.7118	45557.87	3.3690	3.3690	-0.7837	7.46	1.47	-0.750			
0.7141	45704.15	3.3660	3.3661	-0.7679	7.48	1.49	-0.750			
0.7164	45850.13	3.3630	3.3629	-0.7454	7.49	1.50	-0.750			
0.7186	45991.49	3.3600	3.3600	-0.7272	7.50	1.51	-0.750			
0.7208	46129.25	3.3570	3.3569	-0.7076	7.51	1.52	-0.750			
0.7229	46265.19	3.3540	3.3541	-0.6881	7.52	1.53	-0.750			
0.7249	46395.25	3.3510	3.3509	-0.6575	7.54	1.55	-0.750			
0.7268	46518.16	3.3480	3.3480	-0.6132	7.55	1.56	-0.750			
