Ah_balance (normalized)	Ah_balance (mAh)	Voltage - fit (V)	Voltage -  interpolate (V)	dQ/dV (1/V)	Temperature (°C)	Temperature - diff (°C)	Current (C)	R_DC 0ms (mOhm)	R_DC 50ms (mOhm)	R_DC 50 ms PEC (mOhm)
0.1840	11776.80	4.0780	4.0779	0.7872	7.39	1.41	0.750			
0.1864	11930.11	4.0750	4.0751	0.7981	7.39	1.41	0.750			
0.1888	12085.51	4.0720	4.0720	0.7991	7.38	1.40	0.750			
0.1912	12237.62	4.0690	4.0691	0.8037	7.38	1.40	0.750			
0.1937	12394.07	4.0660	4.0660	0.8072	7.38	1.40	0.750			
0.1960	12546.82	4.0630	4.0630	0.8045	7.37	1.39	0.750			
0.1984	12700.36	4.0600	4.0601	0.8130	7.37	1.39	0.750			
0.2009	12858.13	4.0570	4.0570	0.8131	7.36	1.38	0.750			
0.2034	13015.47	4.0540	4.0539	0.8142	7.35	1.37	0.750			
0.2058	13172.69	4.0510	4.0510	0.8177	7.34	1.36	0.750			
0.2082	13327.31	4.0480	4.0483	0.8195	7.33	1.35	0.750			
0.2107	13486.09	4.0450	4.0450	0.8260	7.33	1.35	0.750			
0.2132	13645.87	4.0420	4.0419	0.8201	7.32	1.34	0.750			
0.2156	13801.58	4.0390	4.0391	0.8236	7.32	1.34	0.750			
0.2181	13960.93	4.0360	4.0361	0.8335	7.32	1.34	0.750			
0.2206	14120.30	4.0330	4.0329	0.8324	7.31	1.33	0.750			
0.2231	14279.16	4.0300	4.0300	0.8349	7.31	1.33	0.750			
0.2256	14440.29	4.0270	4.0271	0.8376	7.30	1.32	0.750			
0.2282	14603.06	4.0240	4.0240	0.8432	7.30	1.32	0.750			
0.2307	14766.44	4.0210	4.0210	0.8466	7.29	1.31	0.750			
0.2332	14927.13	4.0180	4.0180	0.8433	7.28	1.30	0.750			
0.2358	15089.90	4.0150	4.0150	0.8492	7.28	1.30	0.750			
0.2383	15253.75	4.0120	4.0120	0.8513	7.27	1.29	0.750			
0.2409	15417.18	4.0090	4.0090	0.8505	7.27	1.29	0.750			
0.2435	15581.21	4.0060	4.0061	0.8533	7.26	1.28	0.750			
0.2460	15744.46	4.0030	4.0030	0.8571	7.25	1.27	0.750			
0.2486	15908.83	4.0000	4.0000	0.8610	7.25	1.27	0.750			
0.2512	16074.09	3.9970	3.9970	0.8626	7.24	1.26	0.750			
0.2537	16239.88	3.9940	3.9940	0.8669	7.24	1.26	0.750			
0.2564	16407.89	3.9910	3.9910	0.8742	7.24	1.26	0.750			
0.2590	16576.34	3.9880	3.9879	0.8778	7.23	1.25	0.750			
0.2616	16745.53	3.9850	3.9850	0.8791	7.23	1.25	0.750			
0.2643	16914.16	3.9820	3.9820	0.8808	7.22	1.24	0.750			
0.2669	17083.58	3.9790	3.9791	0.8892	7.21	1.23	0.750			
0.2696	17254.92	3.9760	3.9760	0.8966	7.21	1.23	0.750			
0.2723	17427.13	3.9730	3.9728	0.9008	7.20	1.22	0.750			
0.2750	17601.79	3.9700	3.9700	0.9021	7.19	1.21	0.750			
0.2777	17775.62	3.9670	3.9670	0.9070	7.18	1.20	0.750			
0.2805	17950.28	3.9640	3.9641	0.9079	7.17	1.19	0.750			
0.2832	18124.29	3.9610	3.9610	0.9104	7.16	1.18	0.750			
0.2859	18297.77	3.9580	3.9580	0.9134	7.16	1.18	0.750			
0.2886	18473.54	3.9550	3.9550	0.9140	7.15	1.17	0.750			
0.2914	18649.58	3.9520	3.9521	0.9196	7.14	1.16	0.750			
0.2942	18827.92	3.9490	3.9490	0.9277	7.14	1.16	0.750			
0.2970	19005.11	3.9460	3.9459	0.9314	7.13	1.15	0.750			
0.2998	19185.08	3.9430	3.9430	0.9350	7.13	1.15	0.750			
0.3026	19364.33	3.9400	3.9400	0.9415	7.12	1.14	0.750			
0.3054	19545.72	3.9370	3.9370	0.9507	7.12	1.14	0.750			
0.3083	19728.89	3.9340	3.9340	0.9573	7.11	1.13	0.750			
0.3112	19914.60	3.9310	3.9310	0.9651	7.11	1.13	0.750			
0.3141	20099.47	3.9280	3.9280	0.9762	7.10	1.12	0.750			
0.3170	20288.08	3.9250	3.9250	0.9867	7.09	1.11	0.750			
0.3200	20479.79	3.9220	3.9220	0.9967	7.08	1.10	0.750			
0.3230	20673.96	3.9190	3.9190	0.9954	7.07	1.09	0.750			
0.3260	20864.86	3.9160	3.9160	0.9995	7.06	1.08	0.750			
0.3290	21056.07	3.9130	3.9131	1.0107	7.05	1.07	0.750			
0.3320	21249.70	3.9100	3.9101	1.0213	7.05	1.07	0.750			
0.3351	21445.53	3.9070	3.9067	1.0275	7.04	1.06	0.750			
0.3382	21644.10	3.9040	3.9041	1.0432	7.03	1.05	0.750			
0.3413	21846.31	3.9010	3.9010	1.0608	7.02	1.04	0.750			
0.3446	22052.47	3.8980	3.8981	1.0759	7.02	1.04	0.750			
0.3478	22260.81	3.8950	3.8949	1.0784	7.01	1.03	0.750			
0.3511	22468.43	3.8920	3.8921	1.0871	7.00	1.02	0.750			
0.3544	22678.50	3.8890	3.8890	1.0979	6.99	1.01	0.750			
0.3577	22890.08	3.8860	3.8861	1.1104	6.98	1.00	0.750			
0.3610	23105.76	3.8830	3.8829	1.1087	6.96	0.98	0.750			
0.3643	23315.96	3.8800	3.8801	1.1286	6.95	0.97	0.750			
0.3677	23533.98	3.8770	3.8771	1.1481	6.93	0.95	0.750			
0.3712	23758.43	3.8740	3.8738	1.1656	6.91	0.93	0.750			
0.3747	23983.72	3.8710	3.8711	1.1756	6.91	0.93	0.750			
0.3783	24209.55	3.8680	3.8681	1.1964	6.90	0.92	0.750			
0.3819	24438.65	3.8650	3.8652	1.2252	6.89	0.91	0.750			
0.3855	24671.98	3.8620	3.8620	1.2565	6.89	0.91	0.750			
0.3893	24917.21	3.8590	3.8589	1.2918	6.88	0.90	0.750			
0.3933	25170.84	3.8560	3.8559	1.3289	6.86	0.88	0.750			
0.3974	25433.16	3.8530	3.8531	1.3463	6.85	0.87	0.750			
0.4016	25699.94	3.8500	3.8501	1.3552	6.84	0.86	0.750			
0.4056	25957.29	3.8470	3.8471	1.3713	6.82	0.84	0.750			
0.4097	26218.68	3.8440	3.8438	1.3941	6.81	0.83	0.750			
0.4138	26480.45	3.8410	3.8408	1.4153	6.80	0.82	0.750			
0.4181	26757.22	3.8380	3.8380	1.4541	6.78	0.80	0.750	0.436	1.030	
0.4226	27044.03	3.8350	3.8351	1.4731	6.77	0.79	0.750			
0.4270	27330.17	3.8320	3.8321	1.5063	6.75	0.77	0.750			
0.4316	27620.73	3.8290	3.8290	1.5347	6.72	0.74	0.750			
0.4362	27916.17	3.8260	3.8260	1.5410	6.71	0.73	0.750			
0.4409	28215.10	3.8230	3.8231	1.5683	6.69	0.71	0.750			
0.4456	28517.57	3.8200	3.8200	1.6087	6.67	0.69	0.750			
0.4505	28829.29	3.8170	3.8169	1.6514	6.65	0.67	0.750			
0.4556	29155.33	3.8140	3.8139	1.6594	6.63	0.65	0.750			
0.4606	29476.10	3.8110	3.8111	1.7079	6.61	0.63	0.750			
0.4658	29810.34	3.8080	3.8082	1.7645	6.59	0.61	0.750			
0.4711	30149.69	3.8050	3.8047	1.8125	6.57	0.59	0.750			
0.4767	30507.97	3.8020	3.8022	1.8618	6.55	0.57	0.750			
0.4823	30864.09	3.7990	3.7989	1.8906	6.52	0.54	0.750			
0.4882	31244.01	3.7960	3.7961	1.9276	6.50	0.52	0.750			
0.4938	31602.69	3.7930	3.7929	1.9368	6.48	0.50	0.750			
0.4997	31978.38	3.7900	3.7901	1.9702	6.46	0.48	0.750			
0.5057	32362.86	3.7870	3.7869	2.0228	6.44	0.46	0.750			
0.5117	32751.41	3.7840	3.7840	2.0462	6.41	0.43	0.750			
0.5181	33155.96	3.7810	3.7810	2.0941	6.39	0.41	0.750			
0.5243	33554.06	3.7780	3.7780	2.1162	6.36	0.38	0.750			
0.5307	33965.34	3.7750	3.7750	2.1479	6.34	0.36	0.750			
0.5372	34383.12	3.7720	3.7720	2.1919	6.32	0.34	0.750			
0.5439	34809.83	3.7690	3.7691	2.2182	6.30	0.32	0.750			
0.5506	35238.52	3.7660	3.7660	2.2565	6.28	0.30	0.750			
0.5574	35671.56	3.7630	3.7629	2.2388	6.26	0.28	0.750			
0.5640	36098.88	3.7600	3.7601	2.2834	6.23	0.25	0.750			
0.5709	36538.94	3.7570	3.7569	2.3486	6.20	0.22	0.750			
0.5780	36993.48	3.7540	3.7540	2.3999	6.17	0.19	0.750			
0.5855	37471.86	3.7510	3.7510	2.4577	6.15	0.17	0.750			
0.5927	37935.75	3.7480	3.7481	2.4971	6.12	0.14	0.750			
0.6003	38419.42	3.7450	3.7450	2.6082	6.10	0.12	0.750			
0.6084	38937.94	3.7420	3.7420	2.6805	6.07	0.09	0.750			
0.6168	39475.28	3.7390	3.7390	2.7010	6.06	0.08	0.750			
0.6246	39976.17	3.7360	3.7360	2.6331	6.04	0.06	0.750			
0.6324	40471.64	3.7330	3.7328	2.7262	6.02	0.04	0.750			
0.6407	41003.98	3.7300	3.7301	2.9054	6.00	0.02	0.750			
0.6501	41603.94	3.7270	3.7270	3.0568	5.98	-0.00	0.750			
0.6591	42180.93	3.7240	3.7241	2.9010	5.96	-0.02	0.750			
0.6676	42725.02	3.7210	3.7210	2.7160	5.95	-0.03	0.750			
0.6754	43223.85	3.7180	3.7180	2.4630	5.94	-0.04	0.750			
0.6825	43677.75	3.7150	3.7149	2.1956	5.93	-0.05	0.750			
0.6886	44072.98	3.7120	3.7123	1.9520	5.93	-0.05	0.750			
0.6939	44411.85	3.7090	3.7091	1.6917	5.93	-0.05	0.750			
0.6986	44711.62	3.7060	3.7061	1.4930	5.93	-0.05	0.750			
0.7027	44969.84	3.7030	3.7031	1.3071	5.93	-0.05	0.750			
0.7062	45194.13	3.7000	3.7000	1.1742	5.94	-0.04	0.750			
0.7094	45402.00	3.6970	3.6967	1.0645	5.94	-0.04	0.750			
0.7123	45589.56	3.6940	3.6940	0.9681	5.94	-0.04	0.750			
0.7151	45767.35	3.6910	3.6910	0.9015	5.94	-0.04	0.750			
0.7177	45933.95	3.6880	3.6880	0.8420	5.95	-0.03	0.750			
0.7201	46088.65	3.6850	3.6849	0.7922	5.95	-0.03	0.750			
0.7224	46236.47	3.6820	3.6819	0.7372	5.95	-0.03	0.750			
0.7246	46373.29	3.6790	3.6789	0.6848	5.96	-0.02	0.750			
0.7266	46501.33	3.6760	3.6764	0.6357	5.96	-0.02	0.750			
0.7284	46618.82	3.6730	3.6727	0.5830	5.97	-0.01	0.750			
0.7301	46724.84	3.6700	3.6699	0.5278	5.97	-0.01	0.750			
0.7315	46817.83	3.6670	3.6670	0.4753	5.97	-0.01	0.750			
0.7328	46901.50	3.6640	3.6641	0.4309	5.98	-0.00	0.750			
0.7341	46983.44	3.6610	3.6609	0.3949	5.98	-0.00	0.750			
0.7352	47054.14	3.6580	3.6580	0.3529	5.98	0.00	0.750			
0.7362	47117.82	3.6550	3.6550	0.3146	5.98	0.00	0.750			
0.7371	47175.07	3.6520	3.6521	0.2796	5.99	0.01	0.750			
0.7379	47225.82	3.6490	3.6488	0.2416	5.99	0.01	0.750			
0.7386	47268.38	3.6460	3.6458	0.2024	5.99	0.01	0.750			
0.7391	47303.03	3.6430	3.6431	0.1627	5.99	0.01	0.750			
0.7396	47331.29	3.6400	3.6403	0.1251	5.99	0.01	0.750			
0.7399	47353.13	3.6370	3.6373	0.0845	5.99	0.01	0.750			
0.7401	47366.52	3.6340	3.6341	0.0369	5.99	0.01	0.750			
0.7401	47369.03	3.6310	3.6329	-0.0108	5.99	0.01	0.750			
