Ah_balance (normalized)	Ah_balance (mAh)	Voltage - fit (V)	Voltage -  interpolate (V)	dQ/dV (1/V)	Temperature (°C)	Temperature - diff (°C)	Current (C)	R_DC 0ms (mOhm)	R_DC 50ms (mOhm)	R_DC 50 ms PEC (mOhm)
0.0964	6168.01	4.0040	4.0034	-0.0765	5.98	0.01	-0.750			
0.0967	6185.86	4.0010	4.0006	-0.1059	5.98	0.01	-0.750			
0.0970	6208.81	3.9980	3.9980	-0.1332	5.98	0.01	-0.750			
0.0975	6237.23	3.9950	3.9951	-0.1596	5.98	0.01	-0.750			
0.0980	6270.72	3.9920	3.9920	-0.1837	5.98	0.01	-0.750			
0.0986	6308.98	3.9890	3.9890	-0.2100	5.98	0.01	-0.750			
0.0992	6351.48	3.9860	3.9860	-0.2342	5.98	0.01	-0.750			
0.1000	6398.33	3.9830	3.9830	-0.2617	5.97	0.00	-0.750			
0.1008	6451.46	3.9800	3.9799	-0.2847	5.97	0.00	-0.750			
0.1017	6509.00	3.9770	3.9769	-0.3081	5.97	0.00	-0.750			
0.1027	6570.34	3.9740	3.9742	-0.3326	5.97	-0.00	-0.750			
0.1037	6636.22	3.9710	3.9709	-0.3579	5.97	-0.00	-0.750			
0.1048	6706.87	3.9680	3.9680	-0.3830	5.97	-0.00	-0.750			
0.1060	6782.38	3.9650	3.9649	-0.4060	5.96	-0.01	-0.750			
0.1072	6863.17	3.9620	3.9620	-0.4321	5.96	-0.01	-0.750			
0.1086	6949.04	3.9590	3.9591	-0.4581	5.96	-0.01	-0.750			
0.1100	7040.31	3.9560	3.9560	-0.4812	5.96	-0.01	-0.750			
0.1115	7134.74	3.9530	3.9530	-0.5008	5.96	-0.01	-0.750			
0.1130	7232.61	3.9500	3.9500	-0.5216	5.95	-0.02	-0.750			
0.1146	7335.39	3.9470	3.9469	-0.5410	5.95	-0.02	-0.750			
0.1163	7441.92	3.9440	3.9439	-0.5607	5.95	-0.02	-0.750			
0.1180	7550.23	3.9410	3.9411	-0.5790	5.95	-0.02	-0.750			
0.1197	7662.76	3.9380	3.9380	-0.5962	5.95	-0.02	-0.750			
0.1216	7779.37	3.9350	3.9350	-0.6155	5.96	-0.01	-0.750			
0.1234	7899.98	3.9320	3.9320	-0.6327	5.96	-0.01	-0.750			
0.1254	8024.18	3.9290	3.9290	-0.6414	5.96	-0.01	-0.750			
0.1273	8150.28	3.9260	3.9261	-0.6546	5.96	-0.01	-0.750			
0.1293	8276.54	3.9230	3.9231	-0.6629	5.96	-0.01	-0.750			
0.1313	8404.40	3.9200	3.9200	-0.6686	5.96	-0.01	-0.750			
0.1333	8533.75	3.9170	3.9169	-0.6803	5.96	-0.01	-0.750			
0.1354	8664.73	3.9140	3.9140	-0.6845	5.95	-0.02	-0.750			
0.1375	8797.36	3.9110	3.9110	-0.6920	5.95	-0.02	-0.750			
0.1396	8931.34	3.9080	3.9081	-0.7002	5.95	-0.02	-0.750			
0.1416	9065.19	3.9050	3.9050	-0.7077	5.95	-0.02	-0.750			
0.1438	9202.44	3.9020	3.9018	-0.7130	5.96	-0.01	-0.750			
0.1459	9339.93	3.8990	3.8991	-0.7237	5.96	-0.01	-0.750			
0.1481	9480.03	3.8960	3.8960	-0.7279	5.96	-0.01	-0.750			
0.1504	9623.73	3.8930	3.8930	-0.7361	5.97	-0.00	-0.750			
0.1526	9764.92	3.8900	3.8903	-0.7366	5.97	0.00	-0.750			
0.1548	9905.69	3.8870	3.8870	-0.7358	5.97	0.00	-0.750			
0.1570	10045.75	3.8840	3.8840	-0.7405	5.98	0.01	-0.750			
0.1592	10188.75	3.8810	3.8809	-0.7427	5.98	0.01	-0.750			
0.1614	10332.59	3.8780	3.8780	-0.7442	5.98	0.01	-0.750			
0.1637	10474.49	3.8750	3.8749	-0.7500	5.99	0.02	-0.750			
0.1659	10619.36	3.8720	3.8721	-0.7540	5.99	0.02	-0.750			
0.1682	10763.42	3.8690	3.8689	-0.7578	5.99	0.02	-0.750			
0.1705	10909.58	3.8660	3.8660	-0.7583	6.00	0.03	-0.750			
0.1727	11054.96	3.8630	3.8631	-0.7530	6.00	0.03	-0.750			
0.1750	11202.08	3.8600	3.8599	-0.7542	6.01	0.04	-0.750			
0.1773	11345.51	3.8570	3.8572	-0.7593	6.01	0.04	-0.750			
0.1795	11489.80	3.8540	3.8539	-0.7563	6.02	0.05	-0.750			
0.1818	11633.51	3.8510	3.8511	-0.7662	6.02	0.05	-0.750			
0.1841	11782.37	3.8480	3.8479	-0.7699	6.03	0.06	-0.750			
0.1865	11933.09	3.8450	3.8451	-0.7775	6.04	0.07	-0.750			
0.1888	12084.22	3.8420	3.8419	-0.7756	6.05	0.08	-0.750			
0.1911	12233.24	3.8390	3.8391	-0.7737	6.05	0.08	-0.750			
0.1934	12377.92	3.8360	3.8360	-0.7730	6.06	0.09	-0.750			
0.1957	12526.26	3.8330	3.8329	-0.7738	6.07	0.10	-0.750			
0.1980	12673.72	3.8300	3.8299	-0.7703	6.08	0.11	-0.750			
0.2004	12824.09	3.8270	3.8270	-0.7725	6.08	0.11	-0.750			
0.2027	12973.44	3.8240	3.8243	-0.7744	6.09	0.12	-0.750			
0.2050	13121.93	3.8210	3.8210	-0.7735	6.09	0.12	-0.750			
0.2073	13268.44	3.8180	3.8180	-0.7739	6.10	0.13	-0.750			
0.2096	13416.91	3.8150	3.8149	-0.7733	6.10	0.13	-0.750			
0.2120	13566.94	3.8120	3.8120	-0.7749	6.11	0.14	-0.750			
0.2143	13715.70	3.8090	3.8090	-0.7766	6.11	0.14	-0.750			
0.2167	13866.61	3.8060	3.8060	-0.7777	6.12	0.15	-0.750			
0.2190	14013.86	3.8030	3.8029	-0.7778	6.12	0.15	-0.750			
0.2213	14161.95	3.8000	3.8000	-0.7767	6.13	0.16	-0.750			
0.2236	14311.38	3.7970	3.7970	-0.7771	6.14	0.17	-0.750			
0.2260	14462.18	3.7940	3.7939	-0.7823	6.14	0.17	-0.750			
0.2283	14611.73	3.7910	3.7912	-0.7845	6.15	0.18	-0.750			
0.2307	14761.70	3.7880	3.7880	-0.7839	6.15	0.18	-0.750			
0.2330	14913.67	3.7850	3.7849	-0.7844	6.16	0.19	-0.750			
0.2354	15062.52	3.7820	3.7821	-0.7812	6.16	0.19	-0.750			
0.2377	15213.45	3.7790	3.7790	-0.7870	6.17	0.20	-0.750			
0.2401	15366.08	3.7760	3.7762	-0.7881	6.17	0.20	-0.750			
0.2425	15516.86	3.7730	3.7728	-0.7867	6.18	0.21	-0.750			
0.2448	15667.21	3.7700	3.7701	-0.7887	6.19	0.22	-0.750			
0.2472	15819.97	3.7670	3.7670	-0.7931	6.19	0.22	-0.750			
0.2496	15973.02	3.7640	3.7639	-0.7978	6.20	0.23	-0.750			
0.2520	16126.09	3.7610	3.7611	-0.7958	6.21	0.24	-0.750			
0.2544	16278.65	3.7580	3.7579	-0.7946	6.21	0.24	-0.750			
0.2568	16432.05	3.7550	3.7550	-0.7940	6.22	0.25	-0.750			
0.2591	16582.59	3.7520	3.7520	-0.7911	6.23	0.26	-0.750			
0.2615	16733.35	3.7490	3.7491	-0.7909	6.23	0.26	-0.750			
0.2638	16886.09	3.7460	3.7460	-0.7941	6.24	0.27	-0.750			
0.2662	17037.74	3.7430	3.7429	-0.8001	6.24	0.27	-0.750			
0.2686	17191.21	3.7400	3.7401	-0.8086	6.25	0.28	-0.750			
0.2711	17348.33	3.7370	3.7370	-0.8132	6.25	0.28	-0.750			
0.2735	17506.97	3.7340	3.7339	-0.8178	6.26	0.29	-0.750			
0.2760	17665.24	3.7310	3.7310	-0.8166	6.27	0.30	-0.750			
0.2785	17822.19	3.7280	3.7280	-0.8167	6.27	0.30	-0.750			
0.2809	17977.04	3.7250	3.7250	-0.8223	6.28	0.31	-0.750			
0.2833	18132.27	3.7220	3.7220	-0.8240	6.28	0.31	-0.750			
0.2858	18290.80	3.7190	3.7189	-0.8298	6.29	0.32	-0.750			
0.2883	18452.33	3.7160	3.7160	-0.8450	6.30	0.33	-0.750			
0.2909	18616.61	3.7130	3.7130	-0.8513	6.30	0.33	-0.750			
0.2934	18780.60	3.7100	3.7101	-0.8604	6.31	0.34	-0.750			
0.2961	18947.92	3.7070	3.7070	-0.8621	6.31	0.34	-0.750			
0.2986	19111.27	3.7040	3.7039	-0.8680	6.32	0.35	-0.750			
0.3012	19279.39	3.7010	3.7010	-0.8801	6.33	0.36	-0.750			
0.3039	19448.77	3.6980	3.6980	-0.8894	6.33	0.36	-0.750			
0.3066	19619.55	3.6950	3.6949	-0.9050	6.34	0.37	-0.750			
0.3093	19797.12	3.6920	3.6920	-0.9127	6.34	0.37	-0.750			
0.3121	19973.40	3.6890	3.6890	-0.9173	6.35	0.38	-0.750			
0.3149	20152.15	3.6860	3.6862	-0.9212	6.35	0.38	-0.750			
0.3176	20326.78	3.6830	3.6830	-0.9304	6.35	0.38	-0.750			
0.3204	20507.15	3.6800	3.6800	-0.9373	6.36	0.39	-0.750			
0.3232	20685.32	3.6770	3.6769	-0.9454	6.36	0.39	-0.750			
0.3261	20868.22	3.6740	3.6739	-0.9567	6.37	0.40	-0.750			
0.3290	21054.60	3.6710	3.6710	-0.9683	6.37	0.40	-0.750			
0.3319	21242.60	3.6680	3.6679	-0.9846	6.37	0.40	-0.750			
0.3349	21433.26	3.6650	3.6649	-0.9900	6.38	0.41	-0.750			
0.3378	21622.29	3.6620	3.6620	-0.9907	6.38	0.41	-0.750			
0.3409	21814.45	3.6590	3.6592	-1.0103	6.38	0.41	-0.750			
0.3439	22009.03	3.6560	3.6559	-1.0152	6.39	0.42	-0.750			
0.3469	22204.18	3.6530	3.6529	-1.0304	6.39	0.42	-0.750			
0.3500	22399.40	3.6500	3.6500	-1.0349	6.40	0.43	-0.750			
0.3531	22600.95	3.6470	3.6473	-1.0622	6.40	0.43	-0.750			
0.3564	22810.78	3.6440	3.6439	-1.0685	6.40	0.43	-0.750			
0.3597	23018.03	3.6410	3.6410	-1.0763	6.41	0.44	-0.750			
0.3629	23222.96	3.6380	3.6380	-1.0841	6.41	0.44	-0.750			
0.3661	23432.07	3.6350	3.6351	-1.0996	6.41	0.44	-0.750			
0.3695	23645.30	3.6320	3.6318	-1.0957	6.41	0.44	-0.750			
0.3727	23854.90	3.6290	3.6289	-1.1069	6.40	0.43	-0.750			
0.3760	24064.37	3.6260	3.6262	-1.1198	6.40	0.43	-0.750			
0.3794	24284.32	3.6230	3.6230	-1.1484	6.40	0.43	-0.750			
0.3829	24506.41	3.6200	3.6198	-1.1567	6.40	0.43	-0.750			
0.3864	24729.16	3.6170	3.6169	-1.1735	6.41	0.44	-0.750			
0.3899	24956.25	3.6140	3.6142	-1.1916	6.41	0.44	-0.750			
0.3936	25189.69	3.6110	3.6109	-1.2122	6.41	0.44	-0.750			
0.3972	25423.41	3.6080	3.6079	-1.2147	6.41	0.44	-0.750			
0.4008	25654.06	3.6050	3.6051	-1.2429	6.41	0.44	-0.750			
0.4047	25898.03	3.6020	3.6019	-1.2480	6.41	0.44	-0.750			
0.4084	26139.29	3.5990	3.5989	-1.2471	6.41	0.44	-0.750			
0.4122	26377.83	3.5960	3.5959	-1.2437	6.42	0.45	-0.750			
0.4159	26614.45	3.5930	3.5931	-1.2617	6.42	0.45	-0.750	0.465	1.092	
0.4197	26858.98	3.5900	3.5898	-1.2801	6.42	0.45	-0.750			
0.4235	27105.16	3.5870	3.5869	-1.2856	6.43	0.46	-0.750			
0.4273	27346.50	3.5840	3.5843	-1.3018	6.43	0.46	-0.750			
0.4314	27610.73	3.5810	3.5810	-1.3375	6.43	0.46	-0.750			
0.4354	27867.02	3.5780	3.5780	-1.3542	6.43	0.46	-0.750			
0.4395	28127.89	3.5750	3.5751	-1.3698	6.43	0.46	-0.750			
0.4436	28393.04	3.5720	3.5719	-1.3852	6.43	0.46	-0.750			
0.4478	28658.45	3.5690	3.5690	-1.4022	6.43	0.46	-0.750			
0.4521	28931.43	3.5660	3.5662	-1.4237	6.43	0.46	-0.750			
0.4564	29206.73	3.5630	3.5629	-1.4171	6.43	0.46	-0.750			
0.4607	29485.90	3.5600	3.5597	-1.4281	6.43	0.46	-0.750			
0.4649	29755.90	3.5570	3.5575	-1.4402	6.43	0.46	-0.750			
0.4692	30028.63	3.5540	3.5539	-1.4635	6.43	0.46	-0.750			
0.4736	30312.97	3.5510	3.5508	-1.4771	6.43	0.46	-0.750			
0.4781	30595.24	3.5480	3.5481	-1.4875	6.43	0.46	-0.750			
0.4827	30894.75	3.5450	3.5448	-1.5272	6.44	0.47	-0.750			
0.4873	31187.46	3.5420	3.5422	-1.5627	6.45	0.48	-0.750			
0.4920	31489.66	3.5390	3.5390	-1.5702	6.45	0.48	-0.750			
0.4968	31792.21	3.5360	3.5358	-1.5719	6.45	0.48	-0.750			
0.5015	32096.26	3.5330	3.5332	-1.5795	6.45	0.48	-0.750			
0.5062	32397.28	3.5300	3.5300	-1.5844	6.46	0.49	-0.750			
0.5111	32708.60	3.5270	3.5268	-1.5887	6.46	0.49	-0.750			
0.5157	33006.96	3.5240	3.5242	-1.5946	6.47	0.50	-0.750			
0.5205	33310.53	3.5210	3.5208	-1.5958	6.47	0.50	-0.750			
0.5253	33621.88	3.5180	3.5179	-1.6051	6.48	0.51	-0.750			
0.5302	33929.94	3.5150	3.5148	-1.6195	6.48	0.51	-0.750			
0.5351	34244.53	3.5120	3.5119	-1.6497	6.49	0.52	-0.750			
0.5400	34562.07	3.5090	3.5091	-1.6491	6.49	0.52	-0.750			
0.5451	34885.12	3.5060	3.5061	-1.6533	6.49	0.52	-0.750			
0.5500	35202.42	3.5030	3.5030	-1.6440	6.49	0.52	-0.750			
0.5549	35514.74	3.5000	3.4999	-1.6674	6.49	0.52	-0.750			
0.5599	35830.50	3.4970	3.4969	-1.7268	6.50	0.53	-0.750			
0.5650	36162.20	3.4940	3.4941	-1.7569	6.51	0.54	-0.750			
0.5705	36511.74	3.4910	3.4902	-1.7614	6.52	0.55	-0.750			
0.5760	36866.68	3.4880	3.4882	-1.7578	6.53	0.56	-0.750			
0.5814	37206.74	3.4850	3.4851	-1.7171	6.54	0.57	-0.750			
0.5865	37535.53	3.4820	3.4818	-1.6726	6.55	0.58	-0.750			
0.5911	37830.47	3.4790	3.4790	-1.5737	6.56	0.59	-0.750			
0.5958	38131.60	3.4760	3.4759	-1.5596	6.57	0.60	-0.750			
0.6005	38430.59	3.4730	3.4730	-1.5519	6.59	0.62	-0.750			
0.6051	38726.20	3.4700	3.4699	-1.5437	6.59	0.62	-0.750			
0.6098	39027.03	3.4670	3.4670	-1.5465	6.60	0.63	-0.750			
0.6144	39321.46	3.4640	3.4640	-1.5242	6.61	0.64	-0.750			
0.6190	39615.50	3.4610	3.4610	-1.5047	6.62	0.65	-0.750			
0.6236	39907.20	3.4580	3.4579	-1.4867	6.62	0.65	-0.750			
0.6279	40186.95	3.4550	3.4551	-1.4679	6.63	0.66	-0.750			
0.6323	40466.35	3.4520	3.4519	-1.4450	6.65	0.68	-0.750			
0.6366	40741.35	3.4490	3.4489	-1.4240	6.66	0.69	-0.750			
0.6409	41016.01	3.4460	3.4462	-1.4115	6.67	0.70	-0.750			
0.6452	41290.38	3.4430	3.4429	-1.3875	6.69	0.72	-0.750			
0.6493	41552.55	3.4400	3.4400	-1.3564	6.70	0.73	-0.750			
0.6532	41807.59	3.4370	3.4371	-1.3340	6.71	0.74	-0.750			
0.6572	42063.29	3.4340	3.4339	-1.3090	6.73	0.76	-0.750			
0.6611	42311.10	3.4310	3.4309	-1.2819	6.74	0.77	-0.750			
0.6649	42552.43	3.4280	3.4282	-1.2614	6.75	0.78	-0.750			
0.6687	42794.54	3.4250	3.4249	-1.2379	6.77	0.80	-0.750			
0.6724	43032.24	3.4220	3.4219	-1.2046	6.79	0.82	-0.750			
0.6759	43258.33	3.4190	3.4190	-1.1670	6.80	0.83	-0.750			
0.6794	43478.48	3.4160	3.4160	-1.1499	6.82	0.85	-0.750			
0.6828	43697.96	3.4130	3.4130	-1.1234	6.83	0.86	-0.750			
0.6861	43907.98	3.4100	3.4098	-1.0931	6.84	0.87	-0.750			
0.6893	44115.47	3.4070	3.4071	-1.0694	6.85	0.88	-0.750			
0.6925	44321.36	3.4040	3.4040	-1.0494	6.87	0.90	-0.750			
0.6957	44523.84	3.4010	3.4009	-1.0264	6.89	0.92	-0.750			
0.6987	44715.96	3.3980	3.3980	-0.9976	6.91	0.94	-0.750			
0.7016	44901.48	3.3950	3.3950	-0.9670	6.92	0.95	-0.750			
0.7045	45086.38	3.3920	3.3919	-0.9490	6.94	0.97	-0.750			
0.7073	45266.20	3.3890	3.3889	-0.9202	6.95	0.98	-0.750			
0.7100	45440.98	3.3860	3.3860	-0.8923	6.97	1.00	-0.750			
0.7126	45609.31	3.3830	3.3830	-0.8614	6.98	1.01	-0.750			
0.7152	45773.38	3.3800	3.3802	-0.8412	6.99	1.02	-0.750			
0.7177	45930.80	3.3770	3.3769	-0.8158	7.01	1.04	-0.750			
0.7200	46083.03	3.3740	3.3740	-0.8011	7.02	1.05	-0.750			
0.7224	46236.44	3.3710	3.3710	-0.7830	7.04	1.07	-0.750			
0.7248	46387.58	3.3680	3.3678	-0.7625	7.05	1.08	-0.750			
0.7271	46532.46	3.3650	3.3653	-0.7345	7.07	1.10	-0.750			
0.7293	46672.72	3.3620	3.3620	-0.6855	7.08	1.11	-0.750			
0.7312	46798.93	3.3590	3.3590	-0.6265	7.09	1.12	-0.750			
