Ah_balance (normalized)	Ah_balance (mAh)	Voltage - fit (V)	Voltage -  interpolate (V)	dQ/dV (1/V)	Temperature (°C)	Temperature - diff (°C)	Current (C)	R_DC 0ms (mOhm)	R_DC 50ms (mOhm)	R_DC 50 ms PEC (mOhm)
0.0951	6086.24	4.0060	4.0052	-0.0577	6.00	0.01	-0.750			
0.0953	6100.64	4.0030	4.0028	-0.0923	6.00	0.01	-0.750			
0.0957	6122.99	4.0000	3.9998	-0.1241	6.00	0.01	-0.750			
0.0961	6150.09	3.9970	3.9970	-0.1532	6.00	0.01	-0.750			
0.0966	6182.66	3.9940	3.9942	-0.1801	6.00	0.01	-0.750			
0.0972	6219.96	3.9910	3.9911	-0.2070	6.00	0.01	-0.750			
0.0979	6263.78	3.9880	3.9880	-0.2333	5.99	0.00	-0.750			
0.0986	6310.95	3.9850	3.9850	-0.2562	5.99	0.00	-0.750			
0.0994	6362.05	3.9820	3.9818	-0.2813	5.99	-0.00	-0.750			
0.1003	6418.70	3.9790	3.9790	-0.3065	5.99	-0.00	-0.750			
0.1012	6479.53	3.9760	3.9760	-0.3316	5.98	-0.01	-0.750			
0.1023	6545.65	3.9730	3.9730	-0.3576	5.98	-0.01	-0.750			
0.1034	6616.75	3.9700	3.9700	-0.3821	5.98	-0.01	-0.750			
0.1046	6692.88	3.9670	3.9670	-0.4074	5.97	-0.02	-0.750			
0.1058	6773.28	3.9640	3.9640	-0.4347	5.97	-0.02	-0.750			
0.1072	6859.01	3.9610	3.9610	-0.4590	5.96	-0.03	-0.750			
0.1086	6950.44	3.9580	3.9580	-0.4824	5.96	-0.03	-0.750			
0.1101	7045.71	3.9550	3.9550	-0.5027	5.95	-0.04	-0.750			
0.1116	7144.77	3.9520	3.9521	-0.5244	5.95	-0.04	-0.750			
0.1132	7247.64	3.9490	3.9490	-0.5443	5.95	-0.04	-0.750			
0.1149	7354.15	3.9460	3.9459	-0.5603	5.95	-0.04	-0.750			
0.1166	7462.21	3.9430	3.9430	-0.5793	5.95	-0.04	-0.750			
0.1184	7576.00	3.9400	3.9401	-0.5995	5.95	-0.04	-0.750			
0.1202	7693.67	3.9370	3.9370	-0.6144	5.95	-0.04	-0.750			
0.1221	7813.51	3.9340	3.9339	-0.6338	5.95	-0.04	-0.750			
0.1240	7937.32	3.9310	3.9312	-0.6453	5.95	-0.04	-0.750			
0.1260	8063.00	3.9280	3.9279	-0.6578	5.95	-0.04	-0.750			
0.1280	8190.17	3.9250	3.9250	-0.6709	5.95	-0.04	-0.750			
0.1300	8319.27	3.9220	3.9221	-0.6784	5.95	-0.04	-0.750			
0.1321	8453.09	3.9190	3.9189	-0.6894	5.95	-0.04	-0.750			
0.1341	8585.36	3.9160	3.9160	-0.6955	5.95	-0.04	-0.750			
0.1362	8717.86	3.9130	3.9132	-0.7005	5.95	-0.04	-0.750			
0.1383	8854.34	3.9100	3.9099	-0.7103	5.95	-0.04	-0.750			
0.1405	8991.49	3.9070	3.9070	-0.7162	5.96	-0.03	-0.750			
0.1427	9129.68	3.9040	3.9040	-0.7223	5.96	-0.03	-0.750			
0.1449	9270.46	3.9010	3.9010	-0.7288	5.96	-0.03	-0.750			
0.1471	9411.36	3.8980	3.8980	-0.7310	5.97	-0.02	-0.750			
0.1492	9550.77	3.8950	3.8951	-0.7283	5.97	-0.02	-0.750			
0.1514	9690.84	3.8920	3.8920	-0.7286	5.97	-0.02	-0.750			
0.1536	9828.42	3.8890	3.8891	-0.7385	5.98	-0.01	-0.750			
0.1558	9972.09	3.8860	3.8858	-0.7403	5.98	-0.01	-0.750			
0.1580	10114.78	3.8830	3.8830	-0.7488	5.98	-0.01	-0.750			
0.1603	10259.42	3.8800	3.8800	-0.7535	5.99	-0.00	-0.750			
0.1626	10405.80	3.8770	3.8769	-0.7585	5.99	0.00	-0.750			
0.1649	10551.83	3.8740	3.8739	-0.7633	6.00	0.01	-0.750			
0.1671	10697.42	3.8710	3.8710	-0.7638	6.00	0.01	-0.750			
0.1694	10843.79	3.8680	3.8680	-0.7613	6.00	0.01	-0.750			
0.1718	10992.96	3.8650	3.8649	-0.7635	6.01	0.02	-0.750			
0.1740	11138.37	3.8620	3.8623	-0.7611	6.01	0.02	-0.750			
0.1763	11284.18	3.8590	3.8590	-0.7639	6.02	0.03	-0.750			
0.1786	11430.12	3.8560	3.8559	-0.7679	6.02	0.03	-0.750			
0.1809	11577.51	3.8530	3.8530	-0.7697	6.03	0.04	-0.750			
0.1832	11725.61	3.8500	3.8500	-0.7726	6.03	0.04	-0.750			
0.1855	11875.16	3.8470	3.8470	-0.7761	6.04	0.05	-0.750			
0.1879	12025.38	3.8440	3.8440	-0.7798	6.04	0.05	-0.750			
0.1902	12174.04	3.8410	3.8409	-0.7813	6.05	0.06	-0.750			
0.1926	12323.77	3.8380	3.8380	-0.7789	6.05	0.06	-0.750			
0.1949	12474.07	3.8350	3.8350	-0.7792	6.06	0.07	-0.750			
0.1973	12625.11	3.8320	3.8320	-0.7814	6.07	0.08	-0.750			
0.1996	12774.75	3.8290	3.8291	-0.7802	6.07	0.08	-0.750			
0.2019	12922.99	3.8260	3.8260	-0.7829	6.08	0.09	-0.750			
0.2043	13073.33	3.8230	3.8230	-0.7836	6.09	0.10	-0.750			
0.2066	13224.29	3.8200	3.8199	-0.7809	6.09	0.10	-0.750			
0.2090	13375.23	3.8170	3.8170	-0.7841	6.10	0.11	-0.750			
0.2114	13526.82	3.8140	3.8142	-0.7818	6.11	0.12	-0.750			
0.2137	13675.76	3.8110	3.8110	-0.7785	6.11	0.12	-0.750			
0.2160	13823.60	3.8080	3.8080	-0.7810	6.12	0.13	-0.750			
0.2183	13973.34	3.8050	3.8049	-0.7823	6.12	0.13	-0.750			
0.2207	14125.56	3.8020	3.8019	-0.7856	6.13	0.14	-0.750			
0.2231	14276.98	3.7990	3.7992	-0.7872	6.13	0.14	-0.750			
0.2254	14428.09	3.7960	3.7959	-0.7882	6.14	0.15	-0.750			
0.2278	14579.32	3.7930	3.7930	-0.7933	6.14	0.15	-0.750			
0.2302	14729.87	3.7900	3.7899	-0.7869	6.15	0.16	-0.750			
0.2325	14880.55	3.7870	3.7870	-0.7865	6.16	0.17	-0.750			
0.2349	15034.71	3.7840	3.7840	-0.7901	6.17	0.18	-0.750			
0.2373	15185.91	3.7810	3.7810	-0.7908	6.17	0.18	-0.750			
0.2396	15336.92	3.7780	3.7780	-0.7903	6.18	0.19	-0.750			
0.2420	15488.66	3.7750	3.7750	-0.7902	6.18	0.19	-0.750			
0.2444	15639.51	3.7720	3.7720	-0.7901	6.18	0.19	-0.750			
0.2468	15793.67	3.7690	3.7689	-0.7929	6.19	0.20	-0.750			
0.2492	15945.64	3.7660	3.7662	-0.7932	6.19	0.20	-0.750			
0.2515	16097.91	3.7630	3.7631	-0.7907	6.20	0.21	-0.750			
0.2539	16248.11	3.7600	3.7600	-0.7960	6.21	0.22	-0.750			
0.2563	16401.97	3.7570	3.7570	-0.7999	6.21	0.22	-0.750			
0.2587	16555.18	3.7540	3.7539	-0.8019	6.22	0.23	-0.750			
0.2611	16709.11	3.7510	3.7511	-0.8061	6.23	0.24	-0.750			
0.2635	16866.98	3.7480	3.7480	-0.8062	6.23	0.24	-0.750			
0.2660	17021.40	3.7450	3.7449	-0.8068	6.24	0.25	-0.750			
0.2684	17176.64	3.7420	3.7420	-0.8049	6.24	0.25	-0.750			
0.2708	17328.21	3.7390	3.7390	-0.8100	6.25	0.26	-0.750			
0.2732	17485.34	3.7360	3.7361	-0.8141	6.25	0.26	-0.750			
0.2757	17641.76	3.7330	3.7329	-0.8189	6.26	0.27	-0.750			
0.2781	17798.50	3.7300	3.7300	-0.8266	6.26	0.27	-0.750			
0.2806	17959.08	3.7270	3.7271	-0.8347	6.27	0.28	-0.750			
0.2831	18119.50	3.7240	3.7240	-0.8369	6.28	0.29	-0.750			
0.2857	18282.77	3.7210	3.7210	-0.8432	6.29	0.30	-0.750			
0.2882	18442.94	3.7180	3.7181	-0.8463	6.29	0.30	-0.750			
0.2907	18607.24	3.7150	3.7150	-0.8552	6.30	0.31	-0.750			
0.2933	18770.58	3.7120	3.7120	-0.8583	6.30	0.31	-0.750			
0.2959	18935.41	3.7090	3.7089	-0.8637	6.31	0.32	-0.750			
0.2985	19102.50	3.7060	3.7061	-0.8750	6.31	0.32	-0.750			
0.3011	19271.56	3.7030	3.7030	-0.8831	6.31	0.32	-0.750			
0.3038	19443.80	3.7000	3.7000	-0.8869	6.32	0.33	-0.750			
0.3065	19613.55	3.6970	3.6970	-0.8925	6.32	0.33	-0.750			
0.3091	19783.73	3.6940	3.6940	-0.8997	6.33	0.34	-0.750			
0.3118	19957.92	3.6910	3.6911	-0.9065	6.33	0.34	-0.750			
0.3146	20131.22	3.6880	3.6880	-0.9204	6.34	0.35	-0.750			
0.3173	20308.42	3.6850	3.6850	-0.9311	6.34	0.35	-0.750			
0.3202	20490.33	3.6820	3.6819	-0.9408	6.34	0.35	-0.750			
0.3230	20674.16	3.6790	3.6790	-0.9526	6.35	0.36	-0.750			
0.3259	20856.52	3.6760	3.6760	-0.9581	6.35	0.36	-0.750			
0.3288	21040.85	3.6730	3.6730	-0.9637	6.36	0.37	-0.750			
0.3317	21226.28	3.6700	3.6699	-0.9737	6.36	0.37	-0.750			
0.3345	21411.00	3.6670	3.6670	-0.9818	6.37	0.38	-0.750			
0.3375	21600.59	3.6640	3.6639	-1.0014	6.37	0.38	-0.750			
0.3406	21795.88	3.6610	3.6610	-1.0142	6.38	0.39	-0.750			
0.3436	21993.09	3.6580	3.6580	-1.0274	6.38	0.39	-0.750			
0.3468	22193.02	3.6550	3.6550	-1.0377	6.39	0.40	-0.750			
0.3499	22394.21	3.6520	3.6520	-1.0455	6.39	0.40	-0.750			
0.3530	22593.45	3.6490	3.6490	-1.0498	6.39	0.40	-0.750			
0.3562	22794.84	3.6460	3.6460	-1.0582	6.39	0.40	-0.750			
0.3593	22996.92	3.6430	3.6430	-1.0684	6.39	0.40	-0.750			
0.3626	23203.73	3.6400	3.6400	-1.0903	6.39	0.40	-0.750			
0.3659	23415.30	3.6370	3.6370	-1.1020	6.40	0.41	-0.750			
0.3692	23629.03	3.6340	3.6340	-1.1161	6.40	0.41	-0.750			
0.3726	23846.55	3.6310	3.6310	-1.1280	6.41	0.42	-0.750			
0.3760	24064.10	3.6280	3.6281	-1.1454	6.41	0.42	-0.750			
0.3795	24285.94	3.6250	3.6249	-1.1514	6.41	0.42	-0.750			
0.3829	24507.25	3.6220	3.6220	-1.1589	6.41	0.42	-0.750			
0.3864	24728.49	3.6190	3.6194	-1.1719	6.41	0.42	-0.750			
0.3900	24958.04	3.6160	3.6159	-1.1879	6.42	0.43	-0.750			
0.3935	25186.05	3.6130	3.6129	-1.1935	6.42	0.43	-0.750			
0.3971	25414.42	3.6100	3.6099	-1.2084	6.43	0.44	-0.750			
0.4008	25648.19	3.6070	3.6071	-1.2273	6.43	0.44	-0.750			
0.4045	25886.22	3.6040	3.6039	-1.2395	6.43	0.44	-0.750			
0.4082	26122.50	3.6010	3.6009	-1.2521	6.42	0.43	-0.750			
0.4119	26362.76	3.5980	3.5982	-1.2635	6.42	0.43	-0.750			
0.4158	26611.36	3.5950	3.5954	-1.2804	6.42	0.43	-0.750	0.477	1.088	
0.4197	26859.02	3.5920	3.5919	-1.2957	6.42	0.43	-0.750			
0.4236	27108.46	3.5890	3.5891	-1.3124	6.42	0.43	-0.750			
0.4275	27362.16	3.5860	3.5860	-1.3254	6.42	0.43	-0.750			
0.4316	27619.42	3.5830	3.5828	-1.3415	6.43	0.44	-0.750			
0.4356	27876.73	3.5800	3.5802	-1.3545	6.43	0.44	-0.750			
0.4397	28137.97	3.5770	3.5769	-1.3692	6.43	0.44	-0.750			
0.4438	28402.08	3.5740	3.5740	-1.3833	6.44	0.45	-0.750			
0.4479	28668.58	3.5710	3.5710	-1.4041	6.44	0.45	-0.750			
0.4522	28937.95	3.5680	3.5680	-1.4130	6.44	0.45	-0.750			
0.4565	29214.66	3.5650	3.5649	-1.4309	6.45	0.46	-0.750			
0.4608	29490.39	3.5620	3.5621	-1.4425	6.45	0.46	-0.750			
0.4651	29768.27	3.5590	3.5589	-1.4516	6.45	0.46	-0.750			
0.4695	30045.04	3.5560	3.5560	-1.4804	6.44	0.45	-0.750			
0.4739	30330.80	3.5530	3.5531	-1.5015	6.44	0.45	-0.750			
0.4785	30621.58	3.5500	3.5499	-1.5076	6.44	0.45	-0.750			
0.4831	30916.68	3.5470	3.5469	-1.5431	6.45	0.46	-0.750			
0.4877	31212.94	3.5440	3.5440	-1.5622	6.45	0.46	-0.750			
0.4924	31515.93	3.5410	3.5409	-1.5764	6.45	0.46	-0.750			
0.4972	31819.60	3.5380	3.5381	-1.5835	6.45	0.46	-0.750			
0.5020	32124.99	3.5350	3.5349	-1.5742	6.46	0.47	-0.750			
0.5067	32430.26	3.5320	3.5319	-1.5994	6.46	0.47	-0.750			
0.5115	32736.24	3.5290	3.5290	-1.6110	6.47	0.48	-0.750			
0.5163	33043.14	3.5260	3.5260	-1.6173	6.47	0.48	-0.750			
0.5212	33354.63	3.5230	3.5228	-1.6205	6.47	0.48	-0.750			
0.5261	33672.31	3.5200	3.5199	-1.6312	6.47	0.48	-0.750			
0.5311	33988.13	3.5170	3.5170	-1.6455	6.48	0.49	-0.750			
0.5360	34305.87	3.5140	3.5141	-1.6481	6.49	0.50	-0.750			
0.5409	34619.72	3.5110	3.5110	-1.6325	6.49	0.50	-0.750			
0.5458	34932.34	3.5080	3.5079	-1.6396	6.49	0.50	-0.750			
0.5508	35250.86	3.5050	3.5049	-1.6410	6.49	0.50	-0.750			
0.5557	35567.45	3.5020	3.5020	-1.6487	6.50	0.51	-0.750			
0.5607	35884.66	3.4990	3.4991	-1.6489	6.51	0.52	-0.750			
0.5657	36205.24	3.4960	3.4960	-1.6387	6.52	0.53	-0.750			
0.5706	36520.10	3.4930	3.4929	-1.6390	6.52	0.53	-0.750			
0.5755	36833.34	3.4900	3.4900	-1.6328	6.53	0.54	-0.750			
0.5804	37143.44	3.4870	3.4870	-1.6175	6.53	0.54	-0.750			
0.5852	37454.54	3.4840	3.4841	-1.6184	6.53	0.54	-0.750			
0.5900	37762.51	3.4810	3.4811	-1.6098	6.54	0.55	-0.750			
0.5949	38075.35	3.4780	3.4778	-1.6054	6.54	0.55	-0.750			
0.5998	38384.94	3.4750	3.4749	-1.5866	6.55	0.56	-0.750			
0.6045	38688.65	3.4720	3.4718	-1.5532	6.57	0.58	-0.750			
0.6092	38985.95	3.4690	3.4690	-1.5486	6.58	0.59	-0.750			
0.6138	39280.10	3.4660	3.4659	-1.5243	6.59	0.60	-0.750			
0.6183	39568.12	3.4630	3.4628	-1.4936	6.60	0.61	-0.750			
0.6227	39849.73	3.4600	3.4603	-1.4757	6.61	0.62	-0.750			
0.6271	40134.15	3.4570	3.4570	-1.4675	6.62	0.63	-0.750			
0.6315	40418.29	3.4540	3.4539	-1.4526	6.63	0.64	-0.750			
0.6359	40695.63	3.4510	3.4511	-1.4481	6.65	0.66	-0.750			
0.6402	40972.94	3.4480	3.4480	-1.4229	6.66	0.67	-0.750			
0.6445	41247.77	3.4450	3.4448	-1.4032	6.68	0.69	-0.750			
0.6487	41514.98	3.4420	3.4425	-1.3843	6.69	0.70	-0.750			
0.6527	41775.66	3.4390	3.4390	-1.3550	6.70	0.71	-0.750			
0.6568	42035.52	3.4360	3.4359	-1.3338	6.72	0.73	-0.750			
0.6607	42287.74	3.4330	3.4331	-1.3163	6.73	0.74	-0.750			
0.6647	42540.83	3.4300	3.4300	-1.2891	6.74	0.75	-0.750			
0.6685	42786.03	3.4270	3.4270	-1.2570	6.75	0.76	-0.750			
0.6723	43024.60	3.4240	3.4241	-1.2239	6.77	0.78	-0.750			
0.6759	43255.02	3.4210	3.4210	-1.1977	6.78	0.79	-0.750			
0.6794	43484.03	3.4180	3.4179	-1.1662	6.80	0.81	-0.750			
0.6829	43704.39	3.4150	3.4149	-1.1364	6.81	0.82	-0.750			
0.6862	43917.70	3.4120	3.4125	-1.1108	6.83	0.84	-0.750			
0.6896	44132.16	3.4090	3.4089	-1.0864	6.85	0.86	-0.750			
0.6928	44337.04	3.4060	3.4059	-1.0575	6.86	0.87	-0.750			
0.6959	44536.99	3.4030	3.4031	-1.0284	6.88	0.89	-0.750			
0.6989	44732.69	3.4000	3.4001	-1.0072	6.89	0.90	-0.750			
0.7019	44922.13	3.3970	3.3970	-0.9806	6.91	0.92	-0.750			
0.7048	45106.60	3.3940	3.3940	-0.9507	6.92	0.93	-0.750			
0.7076	45286.81	3.3910	3.3910	-0.9231	6.93	0.94	-0.750			
0.7104	45463.33	3.3880	3.3879	-0.9033	6.95	0.96	-0.750			
0.7130	45633.23	3.3850	3.3850	-0.8737	6.96	0.97	-0.750			
0.7156	45798.55	3.3820	3.3820	-0.8529	6.98	0.99	-0.750			
0.7181	45959.46	3.3790	3.3789	-0.8280	6.99	1.00	-0.750			
0.7206	46115.36	3.3760	3.3760	-0.8026	7.01	1.02	-0.750			
0.7230	46268.99	3.3730	3.3729	-0.7821	7.02	1.03	-0.750			
0.7253	46416.85	3.3700	3.3700	-0.7601	7.04	1.05	-0.750			
0.7275	46560.12	3.3670	3.3670	-0.7360	7.05	1.06	-0.750			
0.7297	46699.47	3.3640	3.3640	-0.7123	7.07	1.08	-0.750			
0.7318	46834.74	3.3610	3.3610	-0.7164	7.08	1.09	-0.750			
