Ah_balance (normalized)	Ah_balance (mAh)	Voltage - fit (V)	Voltage -  interpolate (V)	dQ/dV (1/V)	Temperature (°C)	Temperature - diff (°C)	Current (C)	R_DC 0ms (mOhm)	R_DC 50ms (mOhm)	R_DC 50 ms PEC (mOhm)
0.0940	6014.84	4.0090	4.0085	-0.0618	5.99	0.02	-0.750			
0.0942	6030.54	4.0060	4.0055	-0.0958	5.99	0.02	-0.750			
0.0946	6052.20	4.0030	4.0028	-0.1241	5.98	0.01	-0.750			
0.0950	6079.09	4.0000	4.0000	-0.1498	5.98	0.01	-0.750			
0.0955	6110.28	3.9970	3.9971	-0.1750	5.98	0.01	-0.750			
0.0960	6146.50	3.9940	3.9940	-0.1989	5.98	0.01	-0.750			
0.0967	6189.38	3.9910	3.9909	-0.2183	5.98	0.01	-0.750			
0.0974	6235.02	3.9880	3.9878	-0.2313	5.98	0.01	-0.750			
0.0981	6279.71	3.9850	3.9852	-0.2451	5.97	0.00	-0.750			
0.0989	6327.63	3.9820	3.9823	-0.2625	5.97	0.00	-0.750			
0.0997	6377.68	3.9790	3.9785	-0.2815	5.97	-0.00	-0.750			
0.1005	6432.97	3.9760	3.9758	-0.3021	5.97	-0.00	-0.750			
0.1014	6492.75	3.9730	3.9729	-0.3237	5.96	-0.01	-0.750			
0.1024	6556.72	3.9700	3.9702	-0.3582	5.96	-0.01	-0.750			
0.1036	6628.28	3.9670	3.9673	-0.3915	5.96	-0.01	-0.750			
0.1048	6706.11	3.9640	3.9637	-0.4218	5.95	-0.02	-0.750			
0.1061	6789.53	3.9610	3.9610	-0.4540	5.95	-0.02	-0.750			
0.1075	6881.73	3.9580	3.9581	-0.4781	5.94	-0.03	-0.750			
0.1090	6978.00	3.9550	3.9551	-0.5014	5.94	-0.03	-0.750			
0.1106	7078.88	3.9520	3.9519	-0.5246	5.93	-0.04	-0.750			
0.1122	7179.77	3.9490	3.9492	-0.5386	5.93	-0.04	-0.750			
0.1138	7285.04	3.9460	3.9459	-0.5510	5.93	-0.04	-0.750			
0.1155	7391.61	3.9430	3.9430	-0.5686	5.92	-0.05	-0.750			
0.1172	7501.23	3.9400	3.9401	-0.5862	5.92	-0.05	-0.750			
0.1190	7616.98	3.9370	3.9369	-0.6053	5.92	-0.05	-0.750			
0.1209	7736.09	3.9340	3.9339	-0.6152	5.92	-0.05	-0.750			
0.1227	7854.56	3.9310	3.9311	-0.6274	5.91	-0.06	-0.750			
0.1246	7977.05	3.9280	3.9281	-0.6424	5.91	-0.06	-0.750			
0.1266	8102.37	3.9250	3.9248	-0.6545	5.91	-0.06	-0.750			
0.1286	8227.74	3.9220	3.9220	-0.6601	5.91	-0.06	-0.750			
0.1306	8356.21	3.9190	3.9190	-0.6731	5.90	-0.07	-0.750			
0.1326	8488.21	3.9160	3.9160	-0.6834	5.90	-0.07	-0.750			
0.1347	8620.43	3.9130	3.9130	-0.6922	5.90	-0.07	-0.750			
0.1368	8752.96	3.9100	3.9102	-0.6969	5.90	-0.07	-0.750			
0.1389	8887.37	3.9070	3.9069	-0.7053	5.90	-0.07	-0.750			
0.1410	9022.49	3.9040	3.9040	-0.7151	5.90	-0.07	-0.750			
0.1431	9160.81	3.9010	3.9011	-0.7237	5.91	-0.06	-0.750			
0.1454	9303.84	3.8980	3.8979	-0.7279	5.91	-0.06	-0.750			
0.1476	9444.27	3.8950	3.8949	-0.7260	5.91	-0.06	-0.750			
0.1497	9583.03	3.8920	3.8922	-0.7249	5.91	-0.06	-0.750			
0.1519	9722.31	3.8890	3.8890	-0.7236	5.91	-0.06	-0.750			
0.1540	9858.19	3.8860	3.8860	-0.7326	5.91	-0.06	-0.750			
0.1562	9999.60	3.8830	3.8830	-0.7400	5.92	-0.05	-0.750			
0.1585	10143.82	3.8800	3.8799	-0.7462	5.92	-0.05	-0.750			
0.1608	10289.04	3.8770	3.8770	-0.7507	5.92	-0.05	-0.750			
0.1631	10435.33	3.8740	3.8740	-0.7532	5.92	-0.05	-0.750			
0.1653	10579.09	3.8710	3.8710	-0.7550	5.93	-0.04	-0.750			
0.1676	10723.43	3.8680	3.8680	-0.7521	5.93	-0.04	-0.750			
0.1698	10864.59	3.8650	3.8650	-0.7511	5.94	-0.03	-0.750			
0.1721	11011.98	3.8620	3.8620	-0.7596	5.94	-0.03	-0.750			
0.1743	11158.39	3.8590	3.8592	-0.7626	5.95	-0.02	-0.750			
0.1766	11305.50	3.8560	3.8560	-0.7675	5.95	-0.02	-0.750			
0.1790	11452.98	3.8530	3.8530	-0.7703	5.96	-0.01	-0.750			
0.1813	11600.87	3.8500	3.8500	-0.7695	5.96	-0.01	-0.750			
0.1836	11750.01	3.8470	3.8470	-0.7701	5.97	-0.00	-0.750			
0.1859	11896.85	3.8440	3.8440	-0.7675	5.97	-0.00	-0.750			
0.1882	12044.11	3.8410	3.8411	-0.7702	5.97	0.00	-0.750			
0.1905	12190.37	3.8380	3.8379	-0.7739	5.98	0.01	-0.750			
0.1928	12338.97	3.8350	3.8350	-0.7728	5.98	0.01	-0.750			
0.1951	12487.64	3.8320	3.8320	-0.7781	5.98	0.01	-0.750			
0.1975	12640.68	3.8290	3.8289	-0.7796	5.99	0.02	-0.750			
0.1999	12790.41	3.8260	3.8261	-0.7782	5.99	0.02	-0.750			
0.2022	12938.47	3.8230	3.8230	-0.7767	5.99	0.02	-0.750			
0.2045	13086.13	3.8200	3.8201	-0.7799	6.00	0.03	-0.750			
0.2068	13234.81	3.8170	3.8168	-0.7786	6.00	0.03	-0.750			
0.2092	13386.09	3.8140	3.8140	-0.7859	6.01	0.04	-0.750			
0.2115	13537.65	3.8110	3.8110	-0.7859	6.01	0.04	-0.750			
0.2139	13689.73	3.8080	3.8080	-0.7894	6.02	0.05	-0.750			
0.2163	13842.65	3.8050	3.8050	-0.7920	6.02	0.05	-0.750			
0.2187	13993.64	3.8020	3.8020	-0.7874	6.03	0.06	-0.750			
0.2210	14144.79	3.7990	3.7989	-0.7848	6.03	0.06	-0.750			
0.2234	14296.05	3.7960	3.7962	-0.7856	6.04	0.07	-0.750			
0.2257	14445.41	3.7930	3.7928	-0.7836	6.04	0.07	-0.750			
0.2280	14595.05	3.7900	3.7899	-0.7871	6.05	0.08	-0.750			
0.2304	14745.66	3.7870	3.7870	-0.7847	6.05	0.08	-0.750			
0.2327	14894.94	3.7840	3.7839	-0.7817	6.06	0.09	-0.750			
0.2351	15048.39	3.7810	3.7811	-0.7889	6.07	0.10	-0.750			
0.2375	15200.19	3.7780	3.7781	-0.7880	6.07	0.10	-0.750			
0.2398	15349.24	3.7750	3.7750	-0.7911	6.08	0.11	-0.750			
0.2422	15501.78	3.7720	3.7720	-0.7943	6.08	0.11	-0.750			
0.2446	15654.29	3.7690	3.7690	-0.7901	6.08	0.11	-0.750			
0.2470	15807.30	3.7660	3.7659	-0.7955	6.09	0.12	-0.750			
0.2494	15961.00	3.7630	3.7632	-0.7962	6.09	0.12	-0.750			
0.2518	16112.94	3.7600	3.7600	-0.7916	6.09	0.12	-0.750			
0.2541	16264.21	3.7570	3.7569	-0.7984	6.10	0.13	-0.750			
0.2565	16417.47	3.7540	3.7540	-0.7974	6.10	0.13	-0.750			
0.2589	16571.85	3.7510	3.7509	-0.7982	6.11	0.14	-0.750			
0.2613	16725.88	3.7480	3.7483	-0.7972	6.11	0.14	-0.750			
0.2637	16878.39	3.7450	3.7450	-0.7940	6.11	0.14	-0.750			
0.2661	17030.10	3.7420	3.7419	-0.8003	6.12	0.15	-0.750			
0.2685	17182.21	3.7390	3.7390	-0.7993	6.13	0.16	-0.750			
0.2709	17334.71	3.7360	3.7360	-0.8038	6.13	0.16	-0.750			
0.2733	17492.53	3.7330	3.7330	-0.8157	6.14	0.17	-0.750			
0.2758	17649.47	3.7300	3.7299	-0.8212	6.14	0.17	-0.750			
0.2783	17808.10	3.7270	3.7270	-0.8279	6.15	0.18	-0.750			
0.2807	17967.65	3.7240	3.7240	-0.8322	6.16	0.19	-0.750			
0.2833	18128.13	3.7210	3.7209	-0.8283	6.16	0.19	-0.750			
0.2858	18289.51	3.7180	3.7181	-0.8345	6.17	0.20	-0.750			
0.2883	18448.17	3.7150	3.7149	-0.8372	6.17	0.20	-0.750			
0.2907	18607.89	3.7120	3.7120	-0.8451	6.18	0.21	-0.750			
0.2933	18770.08	3.7090	3.7089	-0.8546	6.18	0.21	-0.750			
0.2959	18934.43	3.7060	3.7060	-0.8587	6.18	0.21	-0.750			
0.2985	19102.44	3.7030	3.7030	-0.8723	6.19	0.22	-0.750			
0.3011	19271.98	3.7000	3.7000	-0.8797	6.19	0.22	-0.750			
0.3038	19440.70	3.6970	3.6969	-0.8815	6.20	0.23	-0.750			
0.3064	19609.36	3.6940	3.6940	-0.8846	6.20	0.23	-0.750			
0.3090	19778.13	3.6910	3.6910	-0.8889	6.21	0.24	-0.750			
0.3117	19950.93	3.6880	3.6883	-0.8982	6.21	0.24	-0.750			
0.3144	20122.96	3.6850	3.6850	-0.9165	6.21	0.24	-0.750			
0.3172	20298.71	3.6820	3.6820	-0.9245	6.22	0.25	-0.750			
0.3200	20478.18	3.6790	3.6789	-0.9401	6.22	0.25	-0.750			
0.3228	20661.61	3.6760	3.6759	-0.9487	6.23	0.26	-0.750			
0.3257	20845.28	3.6730	3.6730	-0.9572	6.23	0.26	-0.750			
0.3286	21032.20	3.6700	3.6700	-0.9736	6.24	0.27	-0.750			
0.3316	21220.24	3.6670	3.6669	-0.9802	6.24	0.27	-0.750			
0.3345	21406.57	3.6640	3.6639	-0.9813	6.25	0.28	-0.750			
0.3375	21598.53	3.6610	3.6612	-0.9924	6.25	0.28	-0.750			
0.3405	21788.82	3.6580	3.6579	-1.0023	6.25	0.28	-0.750			
0.3435	21981.64	3.6550	3.6549	-1.0123	6.25	0.28	-0.750			
0.3464	22172.09	3.6520	3.6521	-1.0160	6.25	0.28	-0.750			
0.3496	22371.82	3.6490	3.6491	-1.0431	6.25	0.28	-0.750			
0.3527	22574.51	3.6460	3.6459	-1.0543	6.26	0.29	-0.750			
0.3559	22778.88	3.6430	3.6430	-1.0659	6.26	0.29	-0.750			
0.3591	22984.42	3.6400	3.6400	-1.0801	6.27	0.30	-0.750			
0.3624	23191.30	3.6370	3.6371	-1.0934	6.27	0.30	-0.750			
0.3657	23403.24	3.6340	3.6339	-1.1059	6.27	0.30	-0.750			
0.3690	23615.84	3.6310	3.6310	-1.1149	6.26	0.29	-0.750			
0.3724	23832.15	3.6280	3.6277	-1.1251	6.26	0.29	-0.750			
0.3758	24049.91	3.6250	3.6250	-1.1492	6.26	0.29	-0.750			
0.3793	24272.05	3.6220	3.6220	-1.1579	6.27	0.30	-0.750			
0.3827	24495.01	3.6190	3.6189	-1.1711	6.27	0.30	-0.750			
0.3862	24719.42	3.6160	3.6162	-1.1784	6.28	0.31	-0.750			
0.3899	24952.67	3.6130	3.6129	-1.2016	6.28	0.31	-0.750			
0.3935	25186.20	3.6100	3.6100	-1.2105	6.29	0.32	-0.750			
0.3971	25415.01	3.6070	3.6070	-1.2352	6.29	0.32	-0.750			
0.4008	25651.25	3.6040	3.6041	-1.2486	6.29	0.32	-0.750			
0.4046	25897.54	3.6010	3.6008	-1.2619	6.29	0.32	-0.750			
0.4084	26140.73	3.5980	3.5978	-1.2676	6.29	0.32	-0.750	0.504	1.144	
0.4123	26384.65	3.5950	3.5953	-1.2976	6.29	0.32	-0.750			
0.4162	26639.82	3.5920	3.5918	-1.3196	6.29	0.32	-0.750			
0.4203	26896.38	3.5890	3.5887	-1.3274	6.30	0.33	-0.750			
0.4242	27148.91	3.5860	3.5865	-1.3314	6.30	0.33	-0.750			
0.4283	27411.10	3.5830	3.5830	-1.3518	6.30	0.33	-0.750			
0.4324	27671.16	3.5800	3.5800	-1.3667	6.31	0.34	-0.750			
0.4364	27931.87	3.5770	3.5770	-1.3727	6.31	0.34	-0.750			
0.4406	28197.10	3.5740	3.5739	-1.3856	6.32	0.35	-0.750			
0.4447	28461.19	3.5710	3.5711	-1.4098	6.32	0.35	-0.750			
0.4490	28735.78	3.5680	3.5682	-1.4356	6.33	0.36	-0.750			
0.4533	29013.94	3.5650	3.5648	-1.4460	6.33	0.36	-0.750			
0.4577	29292.69	3.5620	3.5619	-1.4746	6.33	0.36	-0.750			
0.4622	29580.36	3.5590	3.5592	-1.4774	6.33	0.36	-0.750			
0.4667	29869.21	3.5560	3.5558	-1.5013	6.34	0.37	-0.750			
0.4712	30155.85	3.5530	3.5530	-1.5060	6.35	0.38	-0.750			
0.4756	30441.39	3.5500	3.5500	-1.4909	6.35	0.38	-0.750			
0.4802	30729.80	3.5470	3.5469	-1.5155	6.36	0.39	-0.750			
0.4847	31018.72	3.5440	3.5441	-1.5312	6.37	0.40	-0.750			
0.4893	31313.42	3.5410	3.5406	-1.5469	6.37	0.40	-0.750			
0.4939	31612.39	3.5380	3.5377	-1.5717	6.37	0.40	-0.750			
0.4987	31915.75	3.5350	3.5353	-1.5908	6.37	0.40	-0.750			
0.5036	32228.47	3.5320	3.5320	-1.6084	6.38	0.41	-0.750			
0.5085	32541.44	3.5290	3.5288	-1.6222	6.40	0.43	-0.750			
0.5134	32854.55	3.5260	3.5259	-1.6290	6.41	0.44	-0.750			
0.5182	33167.50	3.5230	3.5230	-1.6475	6.42	0.45	-0.750			
0.5231	33481.25	3.5200	3.5202	-1.6594	6.43	0.46	-0.750			
0.5282	33802.87	3.5170	3.5168	-1.6581	6.43	0.46	-0.750			
0.5332	34126.58	3.5140	3.5141	-1.6675	6.44	0.47	-0.750			
0.5382	34446.43	3.5110	3.5109	-1.6652	6.44	0.47	-0.750			
0.5432	34764.39	3.5080	3.5082	-1.6675	6.45	0.48	-0.750			
0.5482	35084.34	3.5050	3.5050	-1.6668	6.45	0.48	-0.750			
0.5532	35404.83	3.5020	3.5019	-1.6573	6.46	0.49	-0.750			
0.5582	35725.88	3.4990	3.4991	-1.6664	6.46	0.49	-0.750			
0.5632	36047.83	3.4960	3.4959	-1.6685	6.47	0.50	-0.750			
0.5682	36365.18	3.4930	3.4931	-1.6586	6.49	0.52	-0.750			
0.5732	36685.49	3.4900	3.4901	-1.6449	6.50	0.53	-0.750			
0.5782	37002.06	3.4870	3.4869	-1.6406	6.51	0.54	-0.750			
0.5831	37316.05	3.4840	3.4839	-1.6336	6.51	0.54	-0.750			
0.5879	37624.76	3.4810	3.4809	-1.6355	6.52	0.55	-0.750			
0.5928	37937.05	3.4780	3.4782	-1.6215	6.53	0.56	-0.750			
0.5977	38253.74	3.4750	3.4750	-1.6009	6.55	0.58	-0.750			
0.6025	38561.75	3.4720	3.4718	-1.5726	6.56	0.59	-0.750			
0.6072	38860.37	3.4690	3.4687	-1.5599	6.56	0.59	-0.750			
0.6118	39156.48	3.4660	3.4660	-1.5228	6.57	0.60	-0.750			
0.6163	39444.02	3.4630	3.4629	-1.4888	6.58	0.61	-0.750			
0.6206	39720.90	3.4600	3.4600	-1.4676	6.60	0.63	-0.750			
0.6250	40002.21	3.4570	3.4573	-1.4500	6.61	0.64	-0.750			
0.6294	40280.57	3.4540	3.4540	-1.4722	6.63	0.66	-0.750			
0.6338	40564.05	3.4510	3.4507	-1.4749	6.64	0.67	-0.750			
0.6383	40851.05	3.4480	3.4478	-1.4808	6.66	0.69	-0.750			
0.6428	41139.58	3.4450	3.4450	-1.4572	6.67	0.70	-0.750			
0.6472	41421.18	3.4420	3.4420	-1.4471	6.68	0.71	-0.750			
0.6514	41692.49	3.4390	3.4388	-1.3940	6.70	0.73	-0.750			
0.6557	41962.77	3.4360	3.4358	-1.3685	6.71	0.74	-0.750			
0.6596	42211.50	3.4330	3.4329	-1.3147	6.72	0.75	-0.750			
0.6635	42462.32	3.4300	3.4301	-1.2906	6.74	0.77	-0.750			
0.6674	42714.48	3.4270	3.4270	-1.2710	6.75	0.78	-0.750			
0.6712	42953.75	3.4240	3.4238	-1.2373	6.76	0.79	-0.750			
0.6747	43183.86	3.4210	3.4212	-1.2039	6.77	0.80	-0.750			
0.6784	43419.16	3.4180	3.4180	-1.1834	6.79	0.82	-0.750			
0.6819	43643.77	3.4150	3.4149	-1.1537	6.81	0.84	-0.750			
0.6853	43862.33	3.4120	3.4120	-1.1269	6.83	0.86	-0.750			
0.6887	44074.08	3.4090	3.4089	-1.1061	6.85	0.88	-0.750			
0.6919	44284.46	3.4060	3.4058	-1.0816	6.86	0.89	-0.750			
0.6952	44489.61	3.4030	3.4030	-1.0497	6.87	0.90	-0.750			
0.6983	44688.45	3.4000	3.4003	-1.0192	6.89	0.92	-0.750			
0.7013	44886.37	3.3970	3.3969	-1.0076	6.90	0.93	-0.750			
0.7043	45075.86	3.3940	3.3939	-0.9717	6.91	0.94	-0.750			
0.7071	45255.49	3.3910	3.3909	-0.9340	6.93	0.96	-0.750			
0.7099	45431.84	3.3880	3.3879	-0.9054	6.94	0.97	-0.750			
0.7126	45607.52	3.3850	3.3852	-0.8874	6.95	0.98	-0.750			
0.7152	45773.96	3.3820	3.3819	-0.8711	6.97	1.00	-0.750			
0.7178	45938.22	3.3790	3.3790	-0.8509	6.98	1.01	-0.750			
0.7203	46099.33	3.3760	3.3758	-0.8181	6.99	1.02	-0.750			
0.7228	46257.93	3.3730	3.3729	-0.8033	7.00	1.03	-0.750			
0.7252	46411.41	3.3700	3.3697	-0.7780	7.02	1.05	-0.750	0.495	1.188	
0.7275	46557.70	3.3670	3.3669	-0.7483	7.03	1.06	-0.750			
0.7296	46695.67	3.3640	3.3640	-0.7232	7.05	1.08	-0.750			
0.7317	46828.79	3.3610	3.3610	-0.6956	7.06	1.09	-0.750			
0.7338	46963.75	3.3580	3.3580	-0.6887	7.07	1.10	-0.750			
0.7359	47094.49	3.3550	3.3549	-0.6662	7.09	1.12	-0.750			
0.7378	47220.61	3.3520	3.3520	-0.6458	7.10	1.13	-0.750			
0.7397	47342.26	3.3490	3.3490	-0.6353	7.11	1.14	-0.750			
0.7416	47461.94	3.3460	3.3459	-0.6147	7.12	1.15	-0.750			
0.7434	47578.06	3.3430	3.3429	-0.5996	7.13	1.16	-0.750			
0.7452	47693.17	3.3400	3.3401	-0.5865	7.14	1.17	-0.750			
0.7469	47804.26	3.3370	3.3370	-0.5712	7.16	1.19	-0.750			
0.7487	47913.78	3.3340	3.3340	-0.5548	7.17	1.20	-0.750			
0.7503	48017.50	3.3310	3.3309	-0.5390	7.18	1.21	-0.750			
0.7518	48117.65	3.3280	3.3281	-0.5247	7.19	1.22	-0.750			
0.7534	48218.20	3.3250	3.3249	-0.5126	7.20	1.23	-0.750			
0.7549	48314.30	3.3220	3.3220	-0.4964	7.21	1.24	-0.750			
0.7564	48408.63	3.3190	3.3190	-0.4885	7.22	1.25	-0.750			
0.7578	48501.20	3.3160	3.3160	-0.4766	7.23	1.26	-0.750			
0.7593	48592.76	3.3130	3.3129	-0.4657	7.23	1.26	-0.750			
0.7606	48680.66	3.3100	3.3100	-0.4511	7.24	1.27	-0.750			
0.7620	48766.08	3.3070	3.3071	-0.4415	7.25	1.28	-0.750			
0.7633	48850.59	3.3040	3.3040	-0.4322	7.26	1.29	-0.750			
0.7646	48932.51	3.3010	3.3008	-0.4189	7.28	1.31	-0.750			
0.7658	49010.83	3.2980	3.2981	-0.4052	7.29	1.32	-0.750			
0.7670	49088.02	3.2950	3.2950	-0.3968	7.30	1.33	-0.750			
0.7682	49162.66	3.2920	3.2921	-0.3871	7.31	1.34	-0.750			
0.7693	49235.88	3.2890	3.2889	-0.3798	7.32	1.35	-0.750			
0.7704	49306.94	3.2860	3.2860	-0.3725	7.33	1.36	-0.750			
0.7715	49378.71	3.2830	3.2829	-0.3628	7.34	1.37	-0.750			
0.7726	49448.35	3.2800	3.2799	-0.3533	7.35	1.38	-0.750			
0.7737	49515.69	3.2770	3.2770	-0.3454	7.35	1.38	-0.750			
0.7747	49580.74	3.2740	3.2738	-0.3348	7.36	1.39	-0.750			
0.7757	49643.11	3.2710	3.2710	-0.3274	7.36	1.39	-0.750			
0.7766	49705.52	3.2680	3.2681	-0.3176	7.37	1.40	-0.750			
0.7776	49765.85	3.2650	3.2649	-0.3110	7.38	1.41	-0.750			
0.7785	49825.48	3.2620	3.2622	-0.3062	7.39	1.42	-0.750			
0.7794	49882.89	3.2590	3.2590	-0.2999	7.40	1.43	-0.750			
0.7803	49939.51	3.2560	3.2558	-0.2923	7.40	1.43	-0.750			
0.7812	49995.08	3.2530	3.2531	-0.2869	7.41	1.44	-0.750			
0.7820	50049.20	3.2500	3.2502	-0.2819	7.42	1.45	-0.750			
0.7829	50104.50	3.2470	3.2469	-0.2806	7.43	1.46	-0.750			
0.7837	50157.14	3.2440	3.2439	-0.2734	7.44	1.47	-0.750			
0.7845	50208.64	3.2410	3.2409	-0.2658	7.44	1.47	-0.750			
0.7853	50259.09	3.2380	3.2382	-0.2613	7.45	1.48	-0.750			
0.7861	50309.38	3.2350	3.2351	-0.2575	7.45	1.48	-0.750			
0.7868	50357.90	3.2320	3.2321	-0.2511	7.45	1.48	-0.750			
0.7876	50405.50	3.2290	3.2288	-0.2469	7.46	1.49	-0.750			
0.7883	50452.27	3.2260	3.2261	-0.2409	7.47	1.50	-0.750			
0.7890	50498.21	3.2230	3.2230	-0.2360	7.48	1.51	-0.750			
0.7897	50543.32	3.2200	3.2200	-0.2314	7.48	1.51	-0.750			
0.7904	50587.67	3.2170	3.2170	-0.2273	7.49	1.52	-0.750			
0.7911	50630.06	3.2140	3.2140	-0.2216	7.50	1.53	-0.750			
0.7917	50671.90	3.2110	3.2109	-0.2177	7.51	1.54	-0.750			
0.7924	50713.37	3.2080	3.2080	-0.2143	7.51	1.54	-0.750			
0.7930	50753.81	3.2050	3.2051	-0.2109	7.52	1.55	-0.750			
0.7937	50794.24	3.2020	3.2020	-0.2085	7.53	1.56	-0.750			
0.7943	50834.28	3.1990	3.1989	-0.2047	7.54	1.57	-0.750			
0.7949	50873.22	3.1960	3.1960	-0.2009	7.54	1.57	-0.750			
0.7955	50911.51	3.1930	3.1931	-0.1973	7.55	1.58	-0.750			
0.7961	50949.00	3.1900	3.1901	-0.1942	7.55	1.58	-0.750			
0.7966	50985.46	3.1870	3.1871	-0.1909	7.56	1.59	-0.750			
0.7972	51021.88	3.1840	3.1839	-0.1885	7.56	1.59	-0.750			
0.7978	51057.70	3.1810	3.1809	-0.1852	7.57	1.60	-0.750			
0.7983	51093.07	3.1780	3.1779	-0.1820	7.57	1.60	-0.750			
0.7989	51128.24	3.1750	3.1749	-0.1799	7.58	1.61	-0.750			
0.7994	51162.31	3.1720	3.1721	-0.1769	7.58	1.61	-0.750			
0.7999	51195.99	3.1690	3.1690	-0.1736	7.59	1.62	-0.750			
0.8005	51228.92	3.1660	3.1659	-0.1702	7.60	1.63	-0.750			
0.8010	51261.07	3.1630	3.1631	-0.1667	7.60	1.63	-0.750			
0.8014	51292.77	3.1600	3.1601	-0.1644	7.61	1.64	-0.750			
0.8019	51324.01	3.1570	3.1570	-0.1628	7.61	1.64	-0.750			
0.8024	51354.83	3.1540	3.1538	-0.1610	7.62	1.65	-0.750			
0.8029	51385.61	3.1510	3.1510	-0.1596	7.62	1.65	-0.750			
0.8034	51415.92	3.1480	3.1480	-0.1576	7.63	1.66	-0.750			
0.8038	51446.38	3.1450	3.1450	-0.1559	7.64	1.67	-0.750			
0.8043	51476.36	3.1420	3.1420	-0.1542	7.64	1.67	-0.750			
0.8048	51505.73	3.1390	3.1390	-0.1516	7.65	1.68	-0.750			
0.8052	51534.69	3.1360	3.1360	-0.1491	7.65	1.68	-0.750			
0.8057	51562.87	3.1330	3.1330	-0.1465	7.66	1.69	-0.750			
0.8061	51590.64	3.1300	3.1300	-0.1440	7.66	1.69	-0.750			
0.8065	51618.01	3.1270	3.1270	-0.1426	7.67	1.70	-0.750			
0.8070	51645.17	3.1240	3.1240	-0.1409	7.67	1.70	-0.750			
0.8074	51672.13	3.1210	3.1209	-0.1391	7.68	1.71	-0.750			
0.8078	51698.66	3.1180	3.1180	-0.1374	7.68	1.71	-0.750			
0.8082	51724.82	3.1150	3.1150	-0.1362	7.69	1.72	-0.750			
0.8086	51750.97	3.1120	3.1120	-0.1348	7.69	1.72	-0.750			
0.8090	51776.72	3.1090	3.1089	-0.1332	7.70	1.73	-0.750			
0.8094	51802.13	3.1060	3.1061	-0.1315	7.70	1.73	-0.750			
0.8098	51827.11	3.1030	3.1030	-0.1298	7.71	1.74	-0.750			
0.8102	51851.87	3.1000	3.1000	-0.1287	7.71	1.74	-0.750			
0.8106	51876.50	3.0970	3.0970	-0.1274	7.72	1.75	-0.750			
0.8110	51900.99	3.0940	3.0940	-0.1246	7.72	1.75	-0.750			
0.8113	51924.36	3.0910	3.0910	-0.1230	7.73	1.76	-0.750			
0.8117	51947.84	3.0880	3.0882	-0.1215	7.73	1.76	-0.750			
0.8120	51970.91	3.0850	3.0851	-0.1206	7.74	1.77	-0.750			
0.8124	51993.76	3.0820	3.0818	-0.1191	7.74	1.77	-0.750			
0.8128	52016.52	3.0790	3.0791	-0.1185	7.75	1.78	-0.750			
0.8131	52038.85	3.0760	3.0761	-0.1175	7.75	1.78	-0.750			
0.8135	52061.76	3.0730	3.0730	-0.1162	7.76	1.79	-0.750			
0.8138	52084.63	3.0700	3.0699	-0.1159	7.76	1.79	-0.750			
0.8142	52106.55	3.0670	3.0671	-0.1145	7.77	1.80	-0.750			
0.8145	52128.25	3.0640	3.0641	-0.1128	7.77	1.80	-0.750			
0.8148	52149.81	3.0610	3.0609	-0.1111	7.78	1.81	-0.750			
0.8152	52171.08	3.0580	3.0580	-0.1097	7.78	1.81	-0.750			
0.8155	52191.79	3.0550	3.0550	-0.1089	7.79	1.82	-0.750			
0.8158	52212.27	3.0520	3.0520	-0.1076	7.79	1.82	-0.750			
0.8161	52233.00	3.0490	3.0489	-0.1063	7.80	1.83	-0.750			
0.8165	52253.47	3.0460	3.0460	-0.1054	7.80	1.83	-0.750			
0.8168	52273.44	3.0430	3.0431	-0.1049	7.81	1.84	-0.750			
0.8171	52293.28	3.0400	3.0401	-0.1039	7.81	1.84	-0.750			
0.8174	52313.27	3.0370	3.0371	-0.1029	7.82	1.85	-0.750			
0.8177	52333.13	3.0340	3.0338	-0.1023	7.82	1.85	-0.750			
0.8180	52352.71	3.0310	3.0311	-0.1011	7.83	1.86	-0.750			
0.8183	52371.90	3.0280	3.0281	-0.0999	7.83	1.86	-0.750			
0.8186	52390.91	3.0250	3.0250	-0.0994	7.84	1.87	-0.750			
0.8189	52410.09	3.0220	3.0220	-0.0988	7.84	1.87	-0.750			
0.8192	52429.07	3.0190	3.0188	-0.0975	7.85	1.88	-0.750			
0.8195	52447.50	3.0160	3.0160	-0.0961	7.85	1.88	-0.750			
0.8198	52465.99	3.0130	3.0130	-0.0945	7.86	1.89	-0.750			
0.8201	52484.32	3.0100	3.0102	-0.0933	7.86	1.89	-0.750			
0.8203	52502.05	3.0070	3.0070	-0.0914	7.87	1.90	-0.751			
0.8206	52519.73	3.0040	3.0039	-0.0880	7.87	1.90	-0.751			
0.8209	52536.33	3.0010	3.0011	-0.0848	7.87	1.90	-0.751			
