Ah_balance (normalized)	Ah_balance (mAh)	Voltage - fit (V)	Voltage -  interpolate (V)	dQ/dV (1/V)	Temperature (°C)	Temperature - diff (°C)	Current (C)	R_DC 0ms (mOhm)	R_DC 50ms (mOhm)	R_DC 50 ms PEC (mOhm)
0.1816	11620.72	4.0810	4.0811	0.7712	7.34	1.35	0.750			
0.1839	11772.12	4.0780	4.0779	0.7959	7.34	1.35	0.750			
0.1863	11925.26	4.0750	4.0750	0.7943	7.33	1.34	0.750			
0.1887	12075.97	4.0720	4.0721	0.7963	7.33	1.34	0.750			
0.1911	12230.35	4.0690	4.0691	0.7995	7.32	1.33	0.750			
0.1935	12383.13	4.0660	4.0658	0.8012	7.32	1.33	0.750			
0.1959	12536.08	4.0630	4.0631	0.8017	7.31	1.32	0.750			
0.1983	12690.37	4.0600	4.0601	0.8095	7.31	1.32	0.750			
0.2007	12847.15	4.0570	4.0570	0.8204	7.30	1.31	0.750			
0.2032	13003.08	4.0540	4.0540	0.8196	7.30	1.31	0.750			
0.2057	13162.74	4.0510	4.0510	0.8216	7.29	1.30	0.750			
0.2082	13323.36	4.0480	4.0480	0.8262	7.29	1.30	0.750			
0.2107	13483.37	4.0450	4.0448	0.8151	7.29	1.30	0.750			
0.2131	13638.53	4.0420	4.0422	0.8179	7.28	1.29	0.750			
0.2155	13793.18	4.0390	4.0390	0.8188	7.28	1.29	0.750			
0.2180	13949.20	4.0360	4.0359	0.8201	7.28	1.29	0.750			
0.2204	14107.58	4.0330	4.0331	0.8281	7.28	1.29	0.750			
0.2229	14267.97	4.0300	4.0300	0.8327	7.27	1.28	0.750			
0.2254	14427.23	4.0270	4.0270	0.8395	7.26	1.27	0.750			
0.2280	14590.02	4.0240	4.0240	0.8397	7.26	1.27	0.750			
0.2305	14752.52	4.0210	4.0209	0.8403	7.25	1.26	0.750			
0.2330	14914.61	4.0180	4.0181	0.8436	7.25	1.26	0.750			
0.2356	15077.54	4.0150	4.0151	0.8424	7.24	1.25	0.750			
0.2381	15238.44	4.0120	4.0119	0.8458	7.24	1.25	0.750			
0.2406	15398.96	4.0090	4.0090	0.8468	7.24	1.25	0.750			
0.2432	15563.29	4.0060	4.0058	0.8531	7.23	1.24	0.750			
0.2457	15727.36	4.0030	4.0031	0.8573	7.23	1.24	0.750			
0.2484	15894.88	4.0000	4.0000	0.8616	7.22	1.23	0.750			
0.2509	16059.78	3.9970	3.9971	0.8623	7.22	1.23	0.750			
0.2535	16225.88	3.9940	3.9940	0.8665	7.21	1.22	0.750			
0.2561	16391.03	3.9910	3.9910	0.8666	7.21	1.22	0.750			
0.2587	16557.65	3.9880	3.9880	0.8682	7.21	1.22	0.750			
0.2613	16724.60	3.9850	3.9851	0.8745	7.20	1.21	0.750			
0.2640	16893.46	3.9820	3.9820	0.8782	7.20	1.21	0.750			
0.2666	17061.71	3.9790	3.9790	0.8864	7.19	1.20	0.750			
0.2693	17232.53	3.9760	3.9760	0.8870	7.19	1.20	0.750			
0.2719	17404.38	3.9730	3.9729	0.8867	7.18	1.19	0.750			
0.2746	17575.42	3.9700	3.9700	0.8908	7.18	1.19	0.750			
0.2773	17746.32	3.9670	3.9670	0.8927	7.17	1.18	0.750			
0.2799	17916.55	3.9640	3.9640	0.8971	7.16	1.17	0.750			
0.2826	18089.22	3.9610	3.9610	0.9048	7.16	1.17	0.750			
0.2853	18261.43	3.9580	3.9580	0.9076	7.16	1.17	0.750			
0.2881	18438.56	3.9550	3.9550	0.9199	7.15	1.16	0.750			
0.2909	18617.30	3.9520	3.9520	0.9279	7.15	1.16	0.750			
0.2937	18795.16	3.9490	3.9489	0.9304	7.15	1.16	0.750			
0.2965	18975.18	3.9460	3.9460	0.9322	7.14	1.15	0.750			
0.2993	19153.69	3.9430	3.9430	0.9399	7.13	1.14	0.750			
0.3021	19334.48	3.9400	3.9400	0.9458	7.12	1.13	0.750			
0.3049	19516.17	3.9370	3.9370	0.9502	7.11	1.12	0.750			
0.3078	19701.80	3.9340	3.9341	0.9475	7.11	1.12	0.750			
0.3107	19882.60	3.9310	3.9310	0.9595	7.10	1.11	0.750			
0.3135	20066.49	3.9280	3.9281	0.9682	7.10	1.11	0.750			
0.3164	20252.55	3.9250	3.9250	0.9790	7.09	1.10	0.750			
0.3194	20440.58	3.9220	3.9219	0.9871	7.09	1.10	0.750			
0.3224	20632.09	3.9190	3.9191	0.9923	7.08	1.09	0.750			
0.3254	20823.91	3.9160	3.9161	1.0045	7.08	1.09	0.750			
0.3284	21018.80	3.9130	3.9130	1.0122	7.07	1.08	0.750			
0.3314	21211.67	3.9100	3.9100	1.0107	7.07	1.08	0.750			
0.3345	21406.14	3.9070	3.9070	1.0214	7.06	1.07	0.750			
0.3375	21602.67	3.9040	3.9041	1.0358	7.05	1.06	0.750			
0.3407	21804.09	3.9010	3.9010	1.0476	7.04	1.05	0.750			
0.3439	22006.56	3.8980	3.8979	1.0549	7.03	1.04	0.750			
0.3470	22209.06	3.8950	3.8951	1.0697	7.02	1.03	0.750			
0.3502	22415.84	3.8920	3.8920	1.0873	7.01	1.02	0.750			
0.3535	22626.29	3.8890	3.8890	1.1010	7.00	1.01	0.750			
0.3569	22839.18	3.8860	3.8859	1.1085	6.99	1.00	0.750			
0.3602	23052.26	3.8830	3.8831	1.1272	6.98	0.99	0.750			
0.3636	23272.85	3.8800	3.8800	1.1421	6.97	0.98	0.750			
0.3671	23492.62	3.8770	3.8770	1.1519	6.96	0.97	0.750			
0.3705	23714.21	3.8740	3.8741	1.1636	6.95	0.96	0.750			
0.3740	23937.32	3.8710	3.8711	1.1816	6.94	0.95	0.750			
0.3776	24166.65	3.8680	3.8679	1.1983	6.94	0.95	0.750			
0.3812	24399.32	3.8650	3.8647	1.2109	6.93	0.94	0.750			
0.3849	24631.99	3.8620	3.8621	1.2282	6.92	0.93	0.750			
0.3886	24869.42	3.8590	3.8590	1.2510	6.91	0.92	0.750			
0.3924	25113.07	3.8560	3.8559	1.2644	6.89	0.90	0.750			
0.3962	25355.88	3.8530	3.8531	1.2905	6.88	0.89	0.750			
0.4001	25605.65	3.8500	3.8500	1.3058	6.86	0.87	0.750			
0.4041	25860.15	3.8470	3.8471	1.3184	6.85	0.86	0.750			
0.4080	26110.76	3.8440	3.8442	1.3641	6.83	0.84	0.750			
0.4121	26372.54	3.8410	3.8411	1.4044	6.82	0.83	0.750			
0.4164	26647.82	3.8380	3.8383	1.4364	6.80	0.81	0.750	0.432	1.008	
0.4208	26931.00	3.8350	3.8353	1.4722	6.78	0.79	0.750			
0.4253	27217.25	3.8320	3.8322	1.5118	6.77	0.78	0.750			
0.4299	27515.89	3.8290	3.8289	1.5300	6.75	0.76	0.750			
0.4345	27810.21	3.8260	3.8260	1.5045	6.74	0.75	0.750			
0.4391	28103.57	3.8230	3.8230	1.4990	6.72	0.73	0.750			
0.4436	28392.94	3.8200	3.8201	1.5032	6.71	0.72	0.750			
0.4481	28677.70	3.8170	3.8175	1.4906	6.70	0.71	0.750			
0.4524	28955.38	3.8140	3.8139	1.5341	6.68	0.69	0.750			
0.4570	29246.25	3.8110	3.8107	1.5925	6.67	0.68	0.750			
0.4618	29558.36	3.8080	3.8079	1.6446	6.65	0.66	0.750			
0.4671	29891.22	3.8050	3.8052	1.7497	6.63	0.64	0.750			
0.4725	30240.07	3.8020	3.8020	1.7866	6.61	0.62	0.750			
0.4779	30585.73	3.7990	3.7987	1.8270	6.58	0.59	0.750			
0.4834	30940.34	3.7960	3.7960	1.8703	6.56	0.57	0.750			
0.4891	31299.36	3.7930	3.7930	1.9040	6.55	0.56	0.750			
0.4949	31670.40	3.7900	3.7899	1.9752	6.53	0.54	0.750			
0.5008	32051.09	3.7870	3.7868	2.0222	6.51	0.52	0.750			
0.5070	32446.52	3.7840	3.7838	2.0423	6.49	0.50	0.750			
0.5132	32841.83	3.7810	3.7807	2.0800	6.47	0.48	0.750			
0.5196	33253.73	3.7780	3.7783	2.0449	6.45	0.46	0.750			
0.5255	33629.13	3.7750	3.7752	2.0492	6.42	0.43	0.750			
0.5316	34020.38	3.7720	3.7717	2.1553	6.40	0.41	0.750			
0.5383	34453.90	3.7690	3.7690	2.1884	6.37	0.38	0.750			
0.5452	34893.33	3.7660	3.7661	2.2938	6.34	0.35	0.750			
0.5519	35318.55	3.7630	3.7628	2.2725	6.32	0.33	0.750			
0.5585	35743.88	3.7600	3.7601	2.3078	6.29	0.30	0.750			
0.5657	36206.85	3.7570	3.7571	2.3638	6.28	0.29	0.750			
0.5729	36664.51	3.7540	3.7540	2.3459	6.26	0.27	0.750			
0.5798	37106.05	3.7510	3.7510	2.3632	6.23	0.24	0.750			
0.5869	37560.85	3.7480	3.7479	2.4445	6.21	0.22	0.750			
0.5944	38044.37	3.7450	3.7450	2.5144	6.18	0.19	0.750			
0.6023	38545.94	3.7420	3.7421	2.6622	6.15	0.16	0.750			
0.6103	39061.74	3.7390	3.7389	2.7194	6.12	0.13	0.750			
0.6185	39586.00	3.7360	3.7360	2.8613	6.09	0.10	0.750			
0.6274	40151.36	3.7330	3.7329	2.9423	6.08	0.09	0.750			
0.6366	40743.65	3.7300	3.7300	3.0654	6.05	0.06	0.750			
0.6458	41332.63	3.7270	3.7269	2.9497	6.02	0.03	0.750			
0.6547	41900.40	3.7240	3.7240	2.9712	6.00	0.01	0.750			
0.6636	42467.63	3.7210	3.7209	2.8491	5.98	-0.01	0.750			
0.6720	43006.84	3.7180	3.7180	2.6666	5.97	-0.02	0.750			
0.6793	43478.15	3.7150	3.7151	2.3819	5.97	-0.02	0.750			
0.6861	43909.88	3.7120	3.7123	2.0825	5.96	-0.03	0.750			
0.6919	44283.11	3.7090	3.7092	1.8175	5.95	-0.04	0.750			
0.6967	44591.14	3.7060	3.7065	1.5771	5.95	-0.04	0.750			
0.7011	44868.93	3.7030	3.7030	1.3593	5.96	-0.03	0.750			
0.7047	45098.22	3.7000	3.6999	1.2021	5.96	-0.03	0.750			
0.7079	45303.30	3.6970	3.6969	1.0808	5.96	-0.03	0.750			
0.7107	45487.98	3.6940	3.6941	0.9666	5.96	-0.03	0.750			
0.7135	45663.38	3.6910	3.6910	0.9083	5.96	-0.03	0.750			
0.7161	45830.07	3.6880	3.6881	0.8490	5.96	-0.03	0.750			
0.7185	45986.53	3.6850	3.6846	0.7943	5.96	-0.03	0.750			
0.7209	46134.83	3.6820	3.6821	0.7440	5.97	-0.02	0.750			
0.7230	46274.62	3.6790	3.6791	0.6909	5.97	-0.02	0.750			
0.7251	46403.44	3.6760	3.6759	0.6345	5.98	-0.01	0.750			
0.7269	46518.50	3.6730	3.6731	0.5713	5.98	-0.01	0.750			
0.7285	46622.15	3.6700	3.6701	0.5179	5.98	-0.01	0.750			
0.7299	46714.91	3.6670	3.6669	0.4706	5.99	-0.00	0.750			
0.7312	46799.60	3.6640	3.6635	0.4238	5.99	0.00	0.750			
0.7324	46875.12	3.6610	3.6610	0.3816	5.99	0.00	0.750			
0.7335	46944.35	3.6580	3.6580	0.3423	6.00	0.01	0.750			
0.7345	47007.59	3.6550	3.6551	0.3054	6.00	0.01	0.750			
0.7354	47062.44	3.6520	3.6519	0.2657	6.00	0.01	0.750			
0.7361	47109.57	3.6490	3.6491	0.2259	6.00	0.01	0.750			
0.7367	47149.20	3.6460	3.6460	0.1862	6.00	0.01	0.750			
0.7372	47181.68	3.6430	3.6429	0.1471	6.00	0.01	0.750			
0.7376	47205.76	3.6400	3.6402	0.1059	6.01	0.02	0.750			
0.7378	47221.31	3.6370	3.6380	0.0679	6.01	0.02	0.750			
0.7380	47230.81	3.6340	3.6354	0.0264	6.01	0.02	0.750			
