Ah_balance (normalized)	Ah_balance (mAh)	Voltage - fit (V)	Voltage -  interpolate (V)	dQ/dV (1/V)	Temperature (°C)	Temperature - diff (°C)	Current (C)	R_DC 0ms (mOhm)	R_DC 50ms (mOhm)	R_DC 50 ms PEC (mOhm)
0.1818	11633.09	4.0810	4.0811	0.7651	7.46	1.49	0.750			
0.1841	11782.72	4.0780	4.0778	0.7780	7.45	1.48	0.750			
0.1864	11931.20	4.0750	4.0750	0.7816	7.44	1.47	0.750			
0.1888	12082.95	4.0720	4.0720	0.7828	7.44	1.47	0.750			
0.1911	12233.22	4.0690	4.0691	0.7853	7.43	1.46	0.750			
0.1935	12385.17	4.0660	4.0660	0.7898	7.42	1.45	0.750			
0.1959	12535.57	4.0630	4.0631	0.7884	7.41	1.44	0.750			
0.1982	12687.10	4.0600	4.0600	0.7913	7.41	1.44	0.750			
0.2007	12842.10	4.0570	4.0570	0.7873	7.40	1.43	0.750			
0.2030	12989.64	4.0540	4.0540	0.7875	7.39	1.42	0.750			
0.2053	13142.03	4.0510	4.0511	0.7939	7.38	1.41	0.750			
0.2077	13292.80	4.0480	4.0480	0.7965	7.38	1.41	0.750			
0.2101	13445.14	4.0450	4.0448	0.8013	7.37	1.40	0.750			
0.2125	13600.68	4.0420	4.0421	0.8081	7.36	1.39	0.750			
0.2150	13757.64	4.0390	4.0390	0.8069	7.35	1.38	0.750			
0.2174	13913.22	4.0360	4.0360	0.8134	7.35	1.38	0.750			
0.2198	14067.34	4.0330	4.0331	0.8119	7.34	1.37	0.750			
0.2222	14222.86	4.0300	4.0298	0.8178	7.33	1.36	0.750			
0.2247	14380.55	4.0270	4.0271	0.8232	7.32	1.35	0.750			
0.2272	14540.05	4.0240	4.0240	0.8226	7.31	1.34	0.750			
0.2297	14699.71	4.0210	4.0210	0.8287	7.31	1.34	0.750			
0.2322	14858.31	4.0180	4.0181	0.8273	7.30	1.33	0.750			
0.2346	15016.41	4.0150	4.0148	0.8323	7.29	1.32	0.750			
0.2371	15176.32	4.0120	4.0120	0.8344	7.28	1.31	0.750			
0.2396	15336.89	4.0090	4.0090	0.8388	7.27	1.30	0.750			
0.2422	15499.27	4.0060	4.0061	0.8454	7.27	1.30	0.750			
0.2447	15661.65	4.0030	4.0030	0.8469	7.26	1.29	0.750			
0.2473	15824.64	4.0000	3.9998	0.8530	7.25	1.28	0.750			
0.2498	15989.05	3.9970	3.9970	0.8560	7.24	1.27	0.750			
0.2524	16153.57	3.9940	3.9940	0.8602	7.23	1.26	0.750			
0.2550	16320.34	3.9910	3.9910	0.8659	7.22	1.25	0.750			
0.2576	16486.69	3.9880	3.9880	0.8672	7.21	1.24	0.750			
0.2602	16651.88	3.9850	3.9851	0.8751	7.20	1.23	0.750			
0.2628	16822.05	3.9820	3.9820	0.8755	7.19	1.22	0.750			
0.2655	16990.93	3.9790	3.9790	0.8764	7.19	1.22	0.750			
0.2681	17160.47	3.9760	3.9761	0.8748	7.18	1.21	0.750			
0.2708	17328.76	3.9730	3.9731	0.8734	7.17	1.20	0.750			
0.2734	17494.96	3.9700	3.9700	0.8764	7.16	1.19	0.750			
0.2760	17663.40	3.9670	3.9670	0.8668	7.15	1.18	0.750			
0.2785	17825.92	3.9640	3.9640	0.8773	7.14	1.17	0.750			
0.2812	17997.36	3.9610	3.9611	0.8912	7.13	1.16	0.750			
0.2839	18167.55	3.9580	3.9579	0.9012	7.11	1.14	0.750			
0.2866	18342.56	3.9550	3.9551	0.9121	7.11	1.14	0.750			
0.2894	18519.63	3.9520	3.9520	0.9202	7.10	1.13	0.750			
0.2922	18701.71	3.9490	3.9489	0.9091	7.09	1.12	0.750			
0.2950	18879.64	3.9460	3.9461	0.9077	7.09	1.12	0.750			
0.2976	19047.03	3.9430	3.9432	0.9018	7.08	1.11	0.750			
0.3003	19219.03	3.9400	3.9399	0.9074	7.07	1.10	0.750			
0.3029	19384.83	3.9370	3.9369	0.9036	7.07	1.10	0.750			
0.3056	19556.07	3.9340	3.9341	0.9318	7.06	1.09	0.750			
0.3085	19744.84	3.9310	3.9311	0.9447	7.05	1.08	0.750			
0.3115	19934.01	3.9280	3.9280	0.9406	7.04	1.07	0.750			
0.3143	20113.54	3.9250	3.9251	0.9333	7.04	1.07	0.750			
0.3170	20289.55	3.9220	3.9226	0.9160	7.03	1.06	0.750			
0.3195	20448.66	3.9190	3.9197	0.9511	7.02	1.05	0.750			
0.3223	20629.99	3.9160	3.9163	0.9693	7.01	1.04	0.750			
0.3253	20816.78	3.9130	3.9128	0.9983	7.00	1.03	0.750			
0.3284	21020.65	3.9100	3.9109	1.0410	6.99	1.02	0.750			
0.3319	21241.46	3.9070	3.9072	1.0718	6.98	1.01	0.750			
0.3353	21457.00	3.9040	3.9039	1.0634	6.97	1.00	0.750			
0.3383	21648.08	3.9010	3.9009	1.0286	6.95	0.98	0.750			
0.3413	21840.40	3.8980	3.8982	1.0326	6.94	0.97	0.750			
0.3444	22040.11	3.8950	3.8950	1.0445	6.92	0.95	0.750			
0.3475	22242.98	3.8920	3.8917	1.0510	6.91	0.94	0.750			
0.3507	22443.68	3.8890	3.8892	1.0682	6.90	0.93	0.750			
0.3539	22649.90	3.8860	3.8860	1.0939	6.90	0.93	0.750			
0.3572	22863.67	3.8830	3.8831	1.1089	6.89	0.92	0.750			
0.3606	23076.00	3.8800	3.8800	1.1115	6.89	0.92	0.750			
0.3639	23292.47	3.8770	3.8771	1.1309	6.88	0.91	0.750			
0.3674	23513.25	3.8740	3.8739	1.1481	6.87	0.90	0.750			
0.3709	23735.72	3.8710	3.8709	1.1549	6.85	0.88	0.750			
0.3743	23956.79	3.8680	3.8681	1.1646	6.84	0.87	0.750			
0.3778	24180.21	3.8650	3.8650	1.1816	6.83	0.86	0.750			
0.3814	24410.51	3.8620	3.8620	1.2075	6.82	0.85	0.750			
0.3851	24645.09	3.8590	3.8590	1.2054	6.81	0.84	0.750			
0.3887	24877.00	3.8560	3.8561	1.2358	6.80	0.83	0.750			
0.3924	25114.84	3.8530	3.8533	1.2644	6.78	0.81	0.750			
0.3963	25362.93	3.8500	3.8497	1.2811	6.77	0.80	0.750			
0.4001	25608.23	3.8470	3.8471	1.3120	6.76	0.79	0.750			
0.4040	25858.04	3.8440	3.8442	1.3467	6.75	0.78	0.750			
0.4082	26124.33	3.8410	3.8409	1.3643	6.73	0.76	0.750			
0.4125	26399.44	3.8380	3.8378	1.3855	6.72	0.75	0.750	0.399	0.938	
0.4166	26659.42	3.8350	3.8353	1.4171	6.70	0.73	0.750			
0.4209	26935.37	3.8320	3.8319	1.4373	6.68	0.71	0.750			
0.4252	27214.25	3.8290	3.8288	1.4755	6.66	0.69	0.750			
0.4296	27491.47	3.8260	3.8263	1.4941	6.65	0.68	0.750			
0.4342	27786.74	3.8230	3.8229	1.5163	6.63	0.66	0.750			
0.4388	28083.52	3.8200	3.8203	1.5244	6.62	0.65	0.750			
0.4433	28372.45	3.8170	3.8172	1.5515	6.60	0.63	0.750			
0.4481	28676.03	3.8140	3.8137	1.5941	6.59	0.62	0.750			
0.4528	28980.63	3.8110	3.8109	1.6282	6.57	0.60	0.750			
0.4581	29315.65	3.8080	3.8080	1.6603	6.55	0.58	0.750			
0.4631	29639.53	3.8050	3.8052	1.6864	6.53	0.56	0.750			
0.4680	29954.65	3.8020	3.8021	1.7184	6.51	0.54	0.750			
0.4732	30287.23	3.7990	3.7986	1.7392	6.49	0.52	0.750			
0.4785	30622.99	3.7960	3.7959	1.7868	6.47	0.50	0.750			
0.4840	30978.24	3.7930	3.7929	1.8236	6.45	0.48	0.750			
0.4895	31326.86	3.7900	3.7902	1.8193	6.43	0.46	0.750			
0.4952	31690.95	3.7870	3.7869	1.8476	6.42	0.45	0.750			
0.5006	32037.45	3.7840	3.7843	1.8986	6.39	0.42	0.750			
0.5063	32401.52	3.7810	3.7813	1.9124	6.37	0.40	0.750			
0.5122	32782.03	3.7780	3.7780	1.9524	6.34	0.37	0.750			
0.5181	33155.79	3.7750	3.7749	1.9773	6.32	0.35	0.750			
0.5241	33541.87	3.7720	3.7720	1.9865	6.30	0.33	0.750			
0.5299	33914.02	3.7690	3.7691	2.0090	6.28	0.31	0.750			
0.5362	34318.87	3.7660	3.7659	1.9991	6.26	0.29	0.750			
0.5423	34704.20	3.7630	3.7630	1.9939	6.24	0.27	0.750			
0.5481	35080.06	3.7600	3.7604	2.0203	6.22	0.25	0.750			
0.5542	35465.70	3.7570	3.7573	2.0877	6.20	0.23	0.750			
0.5605	35872.66	3.7540	3.7540	2.1077	6.18	0.21	0.750			
0.5671	36294.63	3.7510	3.7511	2.1712	6.16	0.19	0.750			
0.5737	36715.21	3.7480	3.7480	2.2420	6.13	0.16	0.750			
0.5803	37136.11	3.7450	3.7450	2.2655	6.11	0.14	0.750			
0.5873	37585.20	3.7420	3.7422	2.3531	6.08	0.11	0.750			
0.5944	38044.77	3.7390	3.7390	2.4556	6.06	0.09	0.750			
0.6019	38521.77	3.7360	3.7359	2.5345	6.03	0.06	0.750			
0.6097	39019.33	3.7330	3.7332	2.5199	6.01	0.04	0.750			
0.6174	39515.14	3.7300	3.7299	2.5033	6.00	0.03	0.750			
0.6249	39992.31	3.7270	3.7269	2.4902	5.99	0.02	0.750			
0.6323	40467.02	3.7240	3.7238	2.5492	5.97	0.00	0.750			
0.6401	40967.72	3.7210	3.7207	2.4271	5.96	-0.01	0.750			
0.6475	41437.06	3.7180	3.7184	2.3132	5.95	-0.02	0.750			
0.6538	41843.74	3.7150	3.7148	2.0958	5.94	-0.03	0.750			
0.6597	42223.03	3.7120	3.7115	1.8608	5.93	-0.04	0.750			
0.6654	42585.19	3.7090	3.7090	1.7707	5.93	-0.04	0.750			
0.6703	42898.34	3.7060	3.7060	1.5607	5.93	-0.04	0.750			
0.6746	43175.13	3.7030	3.7032	1.3880	5.93	-0.04	0.750			
0.6786	43429.98	3.7000	3.6999	1.2729	5.92	-0.05	0.750			
0.6818	43637.50	3.6970	3.6969	1.1233	5.91	-0.06	0.750			
0.6849	43835.42	3.6940	3.6942	1.0350	5.91	-0.06	0.750			
0.6879	44024.84	3.6910	3.6910	0.9717	5.92	-0.05	0.750			
0.6907	44206.05	3.6880	3.6880	0.9341	5.92	-0.05	0.750			
0.6934	44379.62	3.6850	3.6850	0.8969	5.92	-0.05	0.750			
0.6960	44546.86	3.6820	3.6820	0.8626	5.93	-0.04	0.750			
0.6986	44710.04	3.6790	3.6790	0.8375	5.93	-0.04	0.750			
0.7011	44868.36	3.6760	3.6760	0.8051	5.94	-0.03	0.750			
0.7034	45020.63	3.6730	3.6730	0.7745	5.94	-0.03	0.750			
0.7058	45168.83	3.6700	3.6700	0.7452	5.94	-0.03	0.750			
0.7079	45307.12	3.6670	3.6670	0.7070	5.95	-0.02	0.750			
0.7100	45439.40	3.6640	3.6640	0.6720	5.95	-0.02	0.750			
0.7120	45565.24	3.6610	3.6610	0.6371	5.95	-0.02	0.750			
0.7138	45684.01	3.6580	3.6580	0.5988	5.96	-0.01	0.750			
0.7156	45796.60	3.6550	3.6550	0.5620	5.96	-0.01	0.750			
0.7172	45901.83	3.6520	3.6520	0.5209	5.96	-0.01	0.750			
0.7187	45997.43	3.6490	3.6491	0.4844	5.96	-0.01	0.750			
0.7201	46085.65	3.6460	3.6460	0.4474	5.97	-0.00	0.750			
0.7214	46167.14	3.6430	3.6431	0.4107	5.97	-0.00	0.750			
0.7225	46242.78	3.6400	3.6399	0.3771	5.97	0.00	0.750			
0.7236	46312.01	3.6370	3.6370	0.3438	5.97	0.00	0.750			
0.7246	46375.59	3.6340	3.6341	0.3116	5.97	0.00	0.750			
0.7255	46432.38	3.6310	3.6309	0.2777	5.98	0.01	0.750			
0.7263	46483.10	3.6280	3.6279	0.2389	5.98	0.01	0.750			
0.7270	46525.78	3.6250	3.6250	0.2026	5.98	0.01	0.750			
0.7275	46561.87	3.6220	3.6221	0.1664	5.98	0.01	0.750			
0.7280	46590.93	3.6190	3.6192	0.1281	5.98	0.01	0.750			
0.7283	46612.33	3.6160	3.6167	0.0876	5.98	0.01	0.750			
0.7285	46625.60	3.6130	3.6140	0.0448	5.98	0.01	0.750			
0.7286	46630.11	3.6100	3.6123	0.0021	5.98	0.01	0.750			
