Ah_balance (normalized)	Ah_balance (mAh)	Voltage - fit (V)	Voltage -  interpolate (V)	dQ/dV (1/V)	Temperature (°C)	Temperature - diff (°C)	Current (C)	R_DC 0ms (mOhm)	R_DC 50ms (mOhm)	R_DC 50 ms PEC (mOhm)
0.0942	6027.94	4.0040	4.0035	-0.0950	5.99	0.00	-0.750			
0.0945	6049.49	4.0010	4.0006	-0.1240	5.99	0.00	-0.750			
0.0949	6075.87	3.9980	3.9980	-0.1508	5.99	-0.00	-0.750			
0.0954	6107.44	3.9950	3.9951	-0.1780	5.99	-0.00	-0.750			
0.0960	6144.48	3.9920	3.9920	-0.2033	5.99	-0.00	-0.750			
0.0967	6186.66	3.9890	3.9890	-0.2299	5.99	-0.00	-0.750			
0.0974	6233.30	3.9860	3.9861	-0.2535	5.99	-0.00	-0.750			
0.0982	6284.15	3.9830	3.9830	-0.2777	5.98	-0.01	-0.750			
0.0991	6339.87	3.9800	3.9801	-0.3018	5.98	-0.01	-0.750			
0.1000	6400.05	3.9770	3.9770	-0.3268	5.98	-0.01	-0.750			
0.1010	6464.63	3.9740	3.9739	-0.3526	5.98	-0.01	-0.750			
0.1021	6534.51	3.9710	3.9711	-0.3793	5.98	-0.01	-0.750			
0.1033	6609.77	3.9680	3.9681	-0.4049	5.98	-0.01	-0.750			
0.1045	6690.84	3.9650	3.9650	-0.4329	5.97	-0.02	-0.750			
0.1059	6776.59	3.9620	3.9619	-0.4587	5.97	-0.02	-0.750			
0.1073	6867.74	3.9590	3.9591	-0.4830	5.97	-0.02	-0.750			
0.1088	6962.64	3.9560	3.9561	-0.5070	5.97	-0.02	-0.750			
0.1104	7063.48	3.9530	3.9530	-0.5265	5.97	-0.02	-0.750			
0.1120	7166.50	3.9500	3.9500	-0.5478	5.97	-0.02	-0.750			
0.1137	7273.98	3.9470	3.9470	-0.5687	5.97	-0.02	-0.750			
0.1154	7384.34	3.9440	3.9440	-0.5883	5.97	-0.02	-0.750			
0.1172	7499.69	3.9410	3.9409	-0.6064	5.97	-0.02	-0.750			
0.1190	7617.98	3.9380	3.9381	-0.6251	5.97	-0.02	-0.750			
0.1209	7740.53	3.9350	3.9349	-0.6422	5.97	-0.02	-0.750			
0.1229	7866.62	3.9320	3.9319	-0.6577	5.97	-0.02	-0.750			
0.1249	7993.77	3.9290	3.9290	-0.6684	5.97	-0.02	-0.750			
0.1269	8124.60	3.9260	3.9261	-0.6771	5.97	-0.02	-0.750			
0.1290	8256.96	3.9230	3.9230	-0.6850	5.97	-0.02	-0.750			
0.1311	8388.82	3.9200	3.9200	-0.6946	5.97	-0.02	-0.750			
0.1332	8521.69	3.9170	3.9171	-0.7005	5.97	-0.02	-0.750			
0.1353	8656.97	3.9140	3.9139	-0.7080	5.98	-0.01	-0.750			
0.1374	8793.88	3.9110	3.9110	-0.7178	5.98	-0.01	-0.750			
0.1396	8932.94	3.9080	3.9080	-0.7234	5.98	-0.01	-0.750			
0.1418	9074.01	3.9050	3.9050	-0.7307	5.99	-0.00	-0.750			
0.1440	9215.46	3.9020	3.9020	-0.7348	5.99	-0.00	-0.750			
0.1462	9355.34	3.8990	3.8991	-0.7406	5.99	0.00	-0.750			
0.1484	9497.84	3.8960	3.8960	-0.7465	6.00	0.01	-0.750			
0.1507	9641.82	3.8930	3.8929	-0.7529	6.00	0.01	-0.750			
0.1529	9786.91	3.8900	3.8900	-0.7563	6.00	0.01	-0.750			
0.1552	9934.88	3.8870	3.8871	-0.7620	6.01	0.02	-0.750			
0.1575	10081.36	3.8840	3.8840	-0.7613	6.01	0.02	-0.750			
0.1598	10227.89	3.8810	3.8810	-0.7625	6.01	0.02	-0.750			
0.1621	10372.68	3.8780	3.8780	-0.7659	6.02	0.03	-0.750			
0.1644	10519.24	3.8750	3.8750	-0.7688	6.02	0.03	-0.750			
0.1667	10668.00	3.8720	3.8720	-0.7713	6.03	0.04	-0.750			
0.1690	10817.04	3.8690	3.8691	-0.7736	6.03	0.04	-0.750			
0.1714	10967.39	3.8660	3.8660	-0.7768	6.03	0.04	-0.750			
0.1737	11115.36	3.8630	3.8630	-0.7804	6.04	0.05	-0.750			
0.1760	11264.62	3.8600	3.8600	-0.7795	6.04	0.05	-0.750			
0.1784	11414.43	3.8570	3.8570	-0.7796	6.04	0.05	-0.750			
0.1807	11564.65	3.8540	3.8539	-0.7860	6.05	0.06	-0.750			
0.1831	11716.51	3.8510	3.8511	-0.7889	6.05	0.06	-0.750			
0.1854	11867.34	3.8480	3.8480	-0.7933	6.06	0.07	-0.750			
0.1878	12020.47	3.8450	3.8450	-0.7923	6.07	0.08	-0.750			
0.1902	12172.42	3.8420	3.8420	-0.7872	6.08	0.09	-0.750			
0.1926	12324.31	3.8390	3.8388	-0.7928	6.08	0.09	-0.750			
0.1950	12477.40	3.8360	3.8362	-0.7905	6.09	0.10	-0.750			
0.1973	12627.61	3.8330	3.8330	-0.7882	6.10	0.11	-0.750			
0.1997	12778.42	3.8300	3.8300	-0.7968	6.11	0.12	-0.750			
0.2021	12931.91	3.8270	3.8269	-0.8000	6.11	0.12	-0.750			
0.2045	13086.89	3.8240	3.8239	-0.8013	6.12	0.13	-0.750			
0.2069	13240.90	3.8210	3.8212	-0.8000	6.13	0.14	-0.750			
0.2093	13393.66	3.8180	3.8181	-0.8012	6.14	0.15	-0.750			
0.2117	13548.56	3.8150	3.8148	-0.8054	6.14	0.15	-0.750			
0.2141	13701.42	3.8120	3.8120	-0.8029	6.15	0.16	-0.750			
0.2165	13855.56	3.8090	3.8090	-0.8008	6.15	0.16	-0.750			
0.2189	14011.73	3.8060	3.8061	-0.8059	6.16	0.17	-0.750			
0.2214	14166.87	3.8030	3.8030	-0.8046	6.16	0.17	-0.750			
0.2237	14319.41	3.8000	3.8000	-0.8074	6.17	0.18	-0.750			
0.2262	14474.47	3.7970	3.7970	-0.8045	6.18	0.19	-0.750			
0.2286	14628.36	3.7940	3.7939	-0.8051	6.18	0.19	-0.750			
0.2310	14784.74	3.7910	3.7910	-0.8044	6.19	0.20	-0.750			
0.2334	14939.46	3.7880	3.7879	-0.8044	6.19	0.20	-0.750			
0.2358	15092.07	3.7850	3.7850	-0.8070	6.20	0.21	-0.750			
0.2382	15247.76	3.7820	3.7820	-0.8066	6.21	0.22	-0.750			
0.2406	15400.67	3.7790	3.7789	-0.8044	6.22	0.23	-0.750			
0.2431	15557.79	3.7760	3.7759	-0.8060	6.23	0.24	-0.750			
0.2455	15711.89	3.7730	3.7731	-0.8057	6.23	0.24	-0.750			
0.2479	15866.00	3.7700	3.7700	-0.8099	6.24	0.25	-0.750			
0.2503	16020.67	3.7670	3.7669	-0.8090	6.24	0.25	-0.750			
0.2527	16175.60	3.7640	3.7640	-0.8082	6.24	0.25	-0.750			
0.2552	16333.29	3.7610	3.7610	-0.8117	6.25	0.26	-0.750			
0.2577	16492.90	3.7580	3.7580	-0.7967	6.25	0.26	-0.750			
0.2601	16645.60	3.7550	3.7550	-0.7834	6.26	0.27	-0.750			
0.2623	16790.38	3.7520	3.7522	-0.7782	6.27	0.28	-0.750			
0.2646	16936.92	3.7490	3.7488	-0.7779	6.27	0.28	-0.750			
0.2669	17083.16	3.7460	3.7459	-0.7838	6.28	0.29	-0.750			
0.2693	17233.51	3.7430	3.7430	-0.7956	6.29	0.30	-0.750			
0.2717	17389.67	3.7400	3.7400	-0.8093	6.29	0.30	-0.750			
0.2742	17548.17	3.7370	3.7370	-0.8279	6.30	0.31	-0.750			
0.2767	17707.14	3.7340	3.7340	-0.8348	6.30	0.31	-0.750			
0.2792	17868.71	3.7310	3.7310	-0.8370	6.31	0.32	-0.750			
0.2817	18031.30	3.7280	3.7280	-0.8430	6.31	0.32	-0.750			
0.2843	18193.72	3.7250	3.7251	-0.8452	6.31	0.32	-0.750			
0.2868	18356.89	3.7220	3.7220	-0.8497	6.32	0.33	-0.750			
0.2894	18519.88	3.7190	3.7190	-0.8508	6.32	0.33	-0.750			
0.2919	18682.16	3.7160	3.7159	-0.8508	6.33	0.34	-0.750			
0.2945	18846.59	3.7130	3.7131	-0.8532	6.33	0.34	-0.750			
0.2970	19010.20	3.7100	3.7100	-0.8641	6.33	0.34	-0.750			
0.2996	19175.88	3.7070	3.7070	-0.8704	6.34	0.35	-0.750			
0.3023	19344.18	3.7040	3.7039	-0.8744	6.34	0.35	-0.750			
0.3049	19512.72	3.7010	3.7010	-0.8817	6.35	0.36	-0.750			
0.3075	19681.44	3.6980	3.6982	-0.8893	6.35	0.36	-0.750			
0.3102	19853.39	3.6950	3.6950	-0.9008	6.35	0.36	-0.750			
0.3129	20026.90	3.6920	3.6919	-0.9114	6.36	0.37	-0.750			
0.3157	20201.62	3.6890	3.6889	-0.9175	6.36	0.37	-0.750			
0.3184	20379.68	3.6860	3.6861	-0.9296	6.37	0.38	-0.750			
0.3213	20560.02	3.6830	3.6828	-0.9411	6.37	0.38	-0.750			
0.3241	20741.45	3.6800	3.6800	-0.9570	6.38	0.39	-0.750			
0.3270	20926.38	3.6770	3.6769	-0.9629	6.38	0.39	-0.750			
0.3299	21111.68	3.6740	3.6740	-0.9657	6.39	0.40	-0.750			
0.3328	21299.99	3.6710	3.6712	-0.9788	6.39	0.40	-0.750			
0.3358	21488.47	3.6680	3.6679	-0.9875	6.40	0.41	-0.750			
0.3387	21677.42	3.6650	3.6650	-0.9956	6.40	0.41	-0.750			
0.3417	21867.47	3.6620	3.6620	-1.0036	6.41	0.42	-0.750			
0.3447	22059.95	3.6590	3.6592	-1.0260	6.41	0.42	-0.750			
0.3478	22259.98	3.6560	3.6560	-1.0418	6.41	0.42	-0.750			
0.3510	22462.43	3.6530	3.6529	-1.0547	6.41	0.42	-0.750			
0.3541	22665.30	3.6500	3.6499	-1.0644	6.41	0.42	-0.750			
0.3574	22872.08	3.6470	3.6472	-1.0796	6.41	0.42	-0.750			
0.3606	23080.76	3.6440	3.6439	-1.0834	6.42	0.43	-0.750			
0.3639	23288.92	3.6410	3.6410	-1.0934	6.42	0.43	-0.750			
0.3671	23497.51	3.6380	3.6380	-1.1057	6.43	0.44	-0.750			
0.3705	23711.05	3.6350	3.6350	-1.1270	6.43	0.44	-0.750			
0.3739	23929.96	3.6320	3.6320	-1.1392	6.43	0.44	-0.750			
0.3774	24152.24	3.6290	3.6289	-1.1479	6.44	0.45	-0.750			
0.3808	24373.17	3.6260	3.6260	-1.1597	6.44	0.45	-0.750			
0.3843	24598.15	3.6230	3.6230	-1.1813	6.44	0.45	-0.750			
0.3879	24824.26	3.6200	3.6199	-1.1931	6.44	0.45	-0.750			
0.3914	25052.70	3.6170	3.6168	-1.2064	6.44	0.45	-0.750			
0.3951	25288.18	3.6140	3.6142	-1.2136	6.44	0.45	-0.750			
0.3989	25526.75	3.6110	3.6110	-1.2325	6.44	0.45	-0.750			
0.4025	25760.94	3.6080	3.6081	-1.2505	6.45	0.46	-0.750			
0.4063	26001.01	3.6050	3.6049	-1.2699	6.45	0.46	-0.750			
0.4101	26245.35	3.6020	3.6018	-1.2807	6.45	0.46	-0.750			
0.4140	26493.13	3.5990	3.5990	-1.2917	6.44	0.45	-0.750	0.482	1.095	
0.4179	26742.79	3.5960	3.5961	-1.3122	6.44	0.45	-0.750			
0.4218	26997.27	3.5930	3.5929	-1.3257	6.44	0.45	-0.750			
0.4259	27254.92	3.5900	3.5899	-1.3330	6.45	0.46	-0.750			
0.4298	27507.79	3.5870	3.5870	-1.3443	6.45	0.46	-0.750			
0.4339	27768.78	3.5840	3.5841	-1.3628	6.45	0.46	-0.750			
0.4380	28033.68	3.5810	3.5809	-1.3823	6.45	0.46	-0.750			
0.4422	28299.02	3.5780	3.5779	-1.4058	6.45	0.46	-0.750			
0.4464	28569.29	3.5750	3.5750	-1.4191	6.45	0.46	-0.750			
0.4508	28848.45	3.5720	3.5720	-1.4331	6.45	0.46	-0.750			
0.4551	29127.20	3.5690	3.5689	-1.4586	6.45	0.46	-0.750			
0.4595	29406.72	3.5660	3.5659	-1.4639	6.45	0.46	-0.750			
0.4639	29691.28	3.5630	3.5629	-1.4760	6.45	0.46	-0.750			
0.4683	29971.35	3.5600	3.5599	-1.4926	6.45	0.46	-0.750			
0.4728	30260.02	3.5570	3.5570	-1.4968	6.45	0.46	-0.750			
0.4774	30552.48	3.5540	3.5539	-1.5297	6.45	0.46	-0.750			
0.4821	30851.64	3.5510	3.5512	-1.5494	6.45	0.46	-0.750			
0.4867	31146.63	3.5480	3.5480	-1.5642	6.45	0.46	-0.750			
0.4915	31453.20	3.5450	3.5448	-1.5878	6.45	0.46	-0.750			
0.4962	31759.46	3.5420	3.5421	-1.6025	6.45	0.46	-0.750			
0.5011	32068.74	3.5390	3.5389	-1.6224	6.46	0.47	-0.750			
0.5060	32384.98	3.5360	3.5359	-1.6238	6.46	0.47	-0.750			
0.5108	32693.46	3.5330	3.5330	-1.6338	6.46	0.47	-0.750			
0.5159	33016.94	3.5300	3.5301	-1.6688	6.47	0.48	-0.750			
0.5209	33336.09	3.5270	3.5268	-1.6635	6.47	0.48	-0.750			
0.5259	33658.42	3.5240	3.5242	-1.6636	6.47	0.48	-0.750			
0.5310	33981.49	3.5210	3.5212	-1.6610	6.47	0.48	-0.750			
0.5359	34299.34	3.5180	3.5179	-1.6691	6.47	0.48	-0.750			
0.5409	34620.31	3.5150	3.5151	-1.6911	6.48	0.49	-0.750			
0.5459	34940.22	3.5120	3.5119	-1.6948	6.48	0.49	-0.750			
0.5511	35268.39	3.5090	3.5092	-1.6963	6.49	0.50	-0.750			
0.5563	35600.80	3.5060	3.5061	-1.6989	6.49	0.50	-0.750			
0.5614	35930.07	3.5030	3.5030	-1.6942	6.50	0.51	-0.750			
0.5665	36253.83	3.5000	3.4998	-1.6806	6.51	0.52	-0.750			
0.5714	36570.60	3.4970	3.4970	-1.6773	6.51	0.52	-0.750			
0.5765	36896.64	3.4940	3.4940	-1.6737	6.51	0.52	-0.750			
0.5816	37221.01	3.4910	3.4909	-1.6761	6.51	0.52	-0.750			
0.5866	37541.00	3.4880	3.4881	-1.6578	6.52	0.53	-0.750			
0.5916	37862.15	3.4850	3.4851	-1.6460	6.53	0.54	-0.750			
0.5965	38175.89	3.4820	3.4819	-1.6359	6.53	0.54	-0.750			
0.6013	38481.81	3.4790	3.4791	-1.6132	6.54	0.55	-0.750			
0.6062	38795.41	3.4760	3.4758	-1.6109	6.55	0.56	-0.750			
0.6110	39103.04	3.4730	3.4730	-1.5926	6.56	0.57	-0.750			
0.6158	39411.09	3.4700	3.4699	-1.5760	6.56	0.57	-0.750			
0.6205	39713.55	3.4670	3.4670	-1.5520	6.57	0.58	-0.750			
0.6251	40008.07	3.4640	3.4638	-1.5407	6.58	0.59	-0.750			
0.6296	40295.89	3.4610	3.4611	-1.5118	6.59	0.60	-0.750			
0.6342	40587.32	3.4580	3.4579	-1.4940	6.60	0.61	-0.750			
0.6387	40876.52	3.4550	3.4549	-1.4785	6.61	0.62	-0.750			
0.6431	41157.43	3.4520	3.4519	-1.4619	6.63	0.64	-0.750			
0.6475	41437.07	3.4490	3.4490	-1.4373	6.63	0.64	-0.750			
0.6518	41712.28	3.4460	3.4458	-1.4155	6.64	0.65	-0.750			
0.6559	41977.35	3.4430	3.4430	-1.3838	6.65	0.66	-0.750			
0.6600	42242.11	3.4400	3.4400	-1.3614	6.66	0.67	-0.750			
0.6642	42507.18	3.4370	3.4369	-1.3418	6.67	0.68	-0.750			
0.6681	42760.65	3.4340	3.4340	-1.3089	6.69	0.70	-0.750			
0.6720	43005.88	3.4310	3.4310	-1.2709	6.70	0.71	-0.750			
0.6758	43251.77	3.4280	3.4280	-1.2476	6.71	0.72	-0.750			
0.6795	43486.20	3.4250	3.4250	-1.2140	6.72	0.73	-0.750			
0.6830	43713.60	3.4220	3.4221	-1.1840	6.73	0.74	-0.750			
0.6866	43939.68	3.4190	3.4190	-1.1616	6.74	0.75	-0.750			
0.6900	44161.54	3.4160	3.4160	-1.1332	6.76	0.77	-0.750			
0.6934	44377.37	3.4130	3.4129	-1.0998	6.77	0.78	-0.750			
0.6967	44585.62	3.4100	3.4100	-1.0741	6.78	0.79	-0.750			
0.6998	44788.14	3.4070	3.4070	-1.0461	6.80	0.81	-0.750			
0.7029	44985.94	3.4040	3.4040	-1.0162	6.81	0.82	-0.750			
0.7059	45177.33	3.4010	3.4009	-0.9872	6.82	0.83	-0.750			
0.7088	45365.26	3.3980	3.3980	-0.9581	6.84	0.85	-0.750			
0.7117	45548.26	3.3950	3.3950	-0.9341	6.85	0.86	-0.750			
0.7145	45724.96	3.3920	3.3920	-0.9004	6.86	0.87	-0.750			
0.7171	45893.25	3.3890	3.3890	-0.8671	6.87	0.88	-0.750			
0.7196	46055.98	3.3860	3.3862	-0.8413	6.88	0.89	-0.750			
0.7221	46213.31	3.3830	3.3830	-0.8190	6.89	0.90	-0.750			
0.7245	46366.17	3.3800	3.3800	-0.8094	6.90	0.91	-0.750			
0.7268	46517.55	3.3770	3.3768	-0.8058	6.91	0.92	-0.750			
0.7292	46670.26	3.3740	3.3741	-0.8267	6.93	0.94	-0.750			
0.7317	46831.77	3.3710	3.3710	-0.8611	6.94	0.95	-0.750			
