Ah_balance (normalized)	Ah_balance (mAh)	Voltage - fit (V)	Voltage -  interpolate (V)	dQ/dV (1/V)	Temperature (°C)	Temperature - diff (°C)	Current (C)	R_DC 0ms (mOhm)	R_DC 50ms (mOhm)	R_DC 50 ms PEC (mOhm)
0.1798	11508.73	4.0790	4.0790	0.7747	7.17	1.18	0.750			
0.1822	11658.78	4.0760	4.0760	0.7812	7.17	1.18	0.750			
0.1845	11809.61	4.0730	4.0730	0.7782	7.17	1.18	0.750			
0.1868	11957.15	4.0700	4.0701	0.7817	7.17	1.18	0.750			
0.1892	12106.90	4.0670	4.0671	0.7823	7.17	1.18	0.750			
0.1915	12257.42	4.0640	4.0636	0.7887	7.17	1.18	0.750			
0.1939	12408.41	4.0610	4.0611	0.7951	7.17	1.18	0.750			
0.1963	12561.70	4.0580	4.0581	0.7966	7.16	1.17	0.750			
0.1987	12717.10	4.0550	4.0550	0.8070	7.16	1.17	0.750			
0.2011	12871.86	4.0520	4.0520	0.8047	7.15	1.16	0.750			
0.2036	13027.56	4.0490	4.0489	0.8064	7.15	1.16	0.750			
0.2060	13183.81	4.0460	4.0460	0.8101	7.15	1.16	0.750			
0.2085	13341.02	4.0430	4.0430	0.8004	7.14	1.15	0.750			
0.2108	13492.92	4.0400	4.0400	0.8033	7.14	1.15	0.750			
0.2132	13646.52	4.0370	4.0371	0.8075	7.14	1.15	0.750			
0.2156	13798.02	4.0340	4.0340	0.8096	7.13	1.14	0.750			
0.2180	13955.17	4.0310	4.0310	0.8150	7.13	1.14	0.750			
0.2205	14113.97	4.0280	4.0281	0.8173	7.13	1.14	0.750			
0.2230	14270.39	4.0250	4.0250	0.8214	7.13	1.14	0.750			
0.2255	14431.50	4.0220	4.0220	0.8282	7.13	1.14	0.750			
0.2279	14587.22	4.0190	4.0190	0.8202	7.13	1.14	0.750			
0.2304	14744.16	4.0160	4.0160	0.8318	7.13	1.14	0.750			
0.2329	14905.42	4.0130	4.0130	0.8289	7.12	1.13	0.750			
0.2354	15065.70	4.0100	4.0100	0.8443	7.12	1.13	0.750			
0.2380	15230.11	4.0070	4.0070	0.8512	7.12	1.13	0.750			
0.2405	15392.44	4.0040	4.0041	0.8505	7.11	1.12	0.750			
0.2431	15557.64	4.0010	4.0011	0.8561	7.11	1.12	0.750			
0.2457	15722.96	3.9980	3.9980	0.8551	7.10	1.11	0.750			
0.2482	15885.17	3.9950	3.9950	0.8550	7.09	1.10	0.750			
0.2508	16049.71	3.9920	3.9921	0.8531	7.09	1.10	0.750			
0.2533	16214.38	3.9890	3.9890	0.8555	7.08	1.09	0.750			
0.2559	16379.80	3.9860	3.9860	0.8617	7.08	1.09	0.750			
0.2585	16545.10	3.9830	3.9831	0.8619	7.07	1.08	0.750			
0.2611	16711.17	3.9800	3.9799	0.8653	7.06	1.07	0.750			
0.2637	16876.73	3.9770	3.9771	0.8685	7.06	1.07	0.750			
0.2663	17044.01	3.9740	3.9738	0.8700	7.05	1.06	0.750			
0.2690	17214.00	3.9710	3.9710	0.8701	7.05	1.06	0.750			
0.2716	17380.18	3.9680	3.9680	0.8769	7.04	1.05	0.750			
0.2742	17547.58	3.9650	3.9651	0.8807	7.04	1.05	0.750			
0.2768	17717.46	3.9620	3.9620	0.8864	7.03	1.04	0.750			
0.2795	17886.19	3.9590	3.9587	0.8921	7.03	1.04	0.750			
0.2822	18058.83	3.9560	3.9561	0.8953	7.02	1.03	0.750			
0.2849	18231.91	3.9530	3.9530	0.9103	7.01	1.02	0.750			
0.2876	18406.94	3.9500	3.9501	0.9190	7.00	1.01	0.750			
0.2904	18583.68	3.9470	3.9470	0.9197	6.99	1.00	0.750			
0.2932	18764.43	3.9440	3.9440	0.9239	6.99	1.00	0.750			
0.2959	18940.37	3.9410	3.9411	0.9330	6.98	0.99	0.750			
0.2987	19118.99	3.9380	3.9382	0.9414	6.98	0.99	0.750			
0.3016	19301.90	3.9350	3.9349	0.9490	6.97	0.98	0.750			
0.3044	19483.45	3.9320	3.9318	0.9481	6.97	0.98	0.750			
0.3073	19669.10	3.9290	3.9292	0.9455	6.96	0.97	0.750			
0.3102	19851.72	3.9260	3.9261	0.9588	6.96	0.97	0.750			
0.3130	20034.56	3.9230	3.9231	0.9647	6.96	0.97	0.750			
0.3159	20217.80	3.9200	3.9198	0.9659	6.95	0.96	0.750			
0.3188	20402.72	3.9170	3.9171	0.9720	6.94	0.95	0.750			
0.3217	20591.66	3.9140	3.9140	0.9874	6.94	0.95	0.750			
0.3247	20782.55	3.9110	3.9111	0.9995	6.93	0.94	0.750			
0.3278	20976.78	3.9080	3.9080	1.0059	6.92	0.93	0.750			
0.3308	21173.55	3.9050	3.9049	1.0062	6.92	0.93	0.750			
0.3338	21364.46	3.9020	3.9021	1.0240	6.91	0.92	0.750			
0.3369	21563.03	3.8990	3.8990	1.0397	6.90	0.91	0.750			
0.3401	21764.48	3.8960	3.8960	1.0511	6.89	0.90	0.750			
0.3432	21967.01	3.8930	3.8931	1.0584	6.88	0.89	0.750			
0.3464	22171.74	3.8900	3.8901	1.0713	6.87	0.88	0.750			
0.3497	22378.78	3.8870	3.8870	1.0854	6.86	0.87	0.750			
0.3530	22589.79	3.8840	3.8839	1.0994	6.85	0.86	0.750			
0.3562	22798.89	3.8810	3.8810	1.0904	6.85	0.86	0.750			
0.3595	23008.83	3.8780	3.8781	1.1156	6.84	0.85	0.750			
0.3629	23223.73	3.8750	3.8751	1.1357	6.84	0.85	0.750			
0.3663	23445.37	3.8720	3.8716	1.1421	6.83	0.84	0.750			
0.3698	23664.62	3.8690	3.8692	1.1589	6.82	0.83	0.750			
0.3733	23888.83	3.8660	3.8661	1.1781	6.82	0.83	0.750			
0.3769	24119.64	3.8630	3.8629	1.1951	6.81	0.82	0.750			
0.3805	24349.15	3.8600	3.8600	1.1969	6.81	0.82	0.750			
0.3840	24577.26	3.8570	3.8572	1.2125	6.79	0.80	0.750			
0.3877	24812.40	3.8540	3.8540	1.2335	6.78	0.79	0.750			
0.3914	25051.99	3.8510	3.8507	1.2548	6.77	0.78	0.750			
0.3952	25290.32	3.8480	3.8481	1.2735	6.76	0.77	0.750			
0.3990	25538.12	3.8450	3.8451	1.2979	6.75	0.76	0.750			
0.4030	25794.82	3.8420	3.8419	1.3242	6.74	0.75	0.750			
0.4070	26047.74	3.8390	3.8391	1.3602	6.73	0.74	0.750			
0.4111	26313.35	3.8360	3.8360	1.3965	6.72	0.73	0.750			
0.4154	26587.20	3.8330	3.8330	1.4238	6.71	0.72	0.750	0.410	0.918	
0.4197	26862.81	3.8300	3.8302	1.4501	6.70	0.71	0.750			
0.4241	27144.38	3.8270	3.8270	1.4759	6.69	0.70	0.750			
0.4286	27430.65	3.8240	3.8237	1.4976	6.67	0.68	0.750			
0.4331	27716.44	3.8210	3.8211	1.4993	6.66	0.67	0.750			
0.4376	28008.90	3.8180	3.8181	1.5350	6.64	0.65	0.750			
0.4422	28303.69	3.8150	3.8148	1.5773	6.63	0.64	0.750			
0.4470	28607.88	3.8120	3.8121	1.6049	6.61	0.62	0.750			
0.4519	28921.49	3.8090	3.8091	1.6377	6.60	0.61	0.750			
0.4569	29243.58	3.8060	3.8062	1.6824	6.58	0.59	0.750			
0.4620	29564.81	3.8030	3.8030	1.6990	6.56	0.57	0.750			
0.4671	29894.51	3.8000	3.8001	1.7650	6.55	0.56	0.750			
0.4725	30237.78	3.7970	3.7971	1.7863	6.52	0.53	0.750			
0.4779	30588.18	3.7940	3.7940	1.8185	6.50	0.51	0.750			
0.4835	30941.73	3.7910	3.7912	1.8561	6.48	0.49	0.750			
0.4891	31301.07	3.7880	3.7880	1.8858	6.46	0.47	0.750			
0.4948	31669.68	3.7850	3.7849	1.9273	6.44	0.45	0.750			
0.5008	32048.72	3.7820	3.7821	1.9719	6.42	0.43	0.750			
0.5068	32432.31	3.7790	3.7792	1.9907	6.40	0.41	0.750			
0.5127	32811.27	3.7760	3.7759	2.0013	6.38	0.39	0.750			
0.5187	33196.69	3.7730	3.7731	2.0331	6.36	0.37	0.750			
0.5249	33594.13	3.7700	3.7700	2.0971	6.34	0.35	0.750			
0.5312	33997.48	3.7670	3.7669	2.0889	6.32	0.33	0.750			
0.5375	34402.64	3.7640	3.7642	2.1241	6.30	0.31	0.750			
0.5440	34813.43	3.7610	3.7608	2.1397	6.28	0.29	0.750			
0.5504	35224.16	3.7580	3.7578	2.1708	6.25	0.26	0.750			
0.5570	35649.12	3.7550	3.7553	2.1976	6.23	0.24	0.750			
0.5637	36074.46	3.7520	3.7521	2.2173	6.20	0.21	0.750			
0.5703	36496.55	3.7490	3.7489	2.2433	6.18	0.19	0.750			
0.5772	36939.54	3.7460	3.7462	2.3013	6.16	0.17	0.750			
0.5842	37389.20	3.7430	3.7430	2.3587	6.15	0.16	0.750			
0.5912	37834.45	3.7400	3.7401	2.3790	6.13	0.14	0.750			
0.5986	38310.68	3.7370	3.7368	2.4784	6.11	0.12	0.750			
0.6060	38784.31	3.7340	3.7340	2.5297	6.08	0.09	0.750			
0.6140	39294.71	3.7310	3.7309	2.7162	6.06	0.07	0.750			
0.6221	39815.73	3.7280	3.7280	2.7106	6.04	0.05	0.750			
0.6304	40346.79	3.7250	3.7250	2.7785	6.03	0.04	0.750			
0.6388	40883.31	3.7220	3.7221	2.7273	6.01	0.02	0.750			
0.6470	41410.09	3.7190	3.7191	2.7138	5.99	-0.00	0.750			
0.6549	41912.87	3.7160	3.7160	2.5545	5.97	-0.02	0.750			
0.6625	42402.40	3.7130	3.7130	2.4316	5.96	-0.03	0.750			
0.6696	42852.86	3.7100	3.7099	2.2492	5.95	-0.04	0.750			
0.6761	43268.08	3.7070	3.7071	2.0158	5.95	-0.04	0.750			
0.6817	43626.42	3.7040	3.7039	1.7634	5.95	-0.04	0.750			
0.6865	43938.10	3.7010	3.7011	1.5451	5.94	-0.05	0.750			
0.6907	44202.94	3.6980	3.6978	1.3591	5.93	-0.06	0.750			
0.6943	44435.99	3.6950	3.6949	1.2077	5.93	-0.06	0.750			
0.6975	44641.97	3.6920	3.6921	1.0712	5.93	-0.06	0.750			
0.7006	44837.80	3.6890	3.6890	1.0030	5.93	-0.06	0.750			
0.7034	45020.16	3.6860	3.6858	0.9361	5.93	-0.06	0.750			
0.7061	45188.76	3.6830	3.6830	0.8784	5.93	-0.06	0.750			
0.7086	45350.37	3.6800	3.6799	0.8246	5.94	-0.05	0.750			
0.7110	45504.74	3.6770	3.6771	0.7901	5.94	-0.05	0.750			
0.7133	45653.43	3.6740	3.6740	0.7520	5.94	-0.05	0.750			
0.7155	45794.11	3.6710	3.6710	0.7114	5.95	-0.04	0.750			
0.7176	45926.62	3.6680	3.6681	0.6652	5.95	-0.04	0.750			
0.7195	46050.32	3.6650	3.6651	0.6221	5.96	-0.03	0.750			
0.7213	46165.90	3.6620	3.6620	0.5787	5.97	-0.02	0.750			
0.7230	46273.15	3.6590	3.6589	0.5368	5.97	-0.02	0.750			
0.7245	46370.67	3.6560	3.6559	0.4878	5.98	-0.01	0.750			
0.7259	46460.21	3.6530	3.6531	0.4470	5.98	-0.01	0.750			
0.7272	46542.01	3.6500	3.6500	0.4058	5.98	-0.01	0.750			
0.7284	46615.98	3.6470	3.6470	0.3670	5.99	-0.00	0.750			
0.7294	46681.28	3.6440	3.6440	0.3282	5.99	0.00	0.750			
0.7303	46740.21	3.6410	3.6410	0.2924	5.99	0.00	0.750			
0.7312	46794.02	3.6380	3.6380	0.2545	6.00	0.01	0.750			
0.7319	46840.34	3.6350	3.6350	0.2201	6.00	0.01	0.750			
0.7325	46879.65	3.6320	3.6319	0.1823	6.00	0.01	0.750			
0.7330	46911.35	3.6290	3.6291	0.1430	6.00	0.01	0.750			
0.7334	46935.35	3.6260	3.6264	0.1015	6.00	0.01	0.750			
0.7336	46950.77	3.6230	3.6235	0.0591	6.00	0.01	0.750			
0.7337	46957.96	3.6200	3.6215	0.0085	6.00	0.01	0.750			
