Ah_balance (normalized)	Ah_balance (mAh)	Voltage - fit (V)	Voltage -  interpolate (V)	dQ/dV (1/V)	Temperature (°C)	Temperature - diff (°C)	Current (C)	R_DC 0ms (mOhm)	R_DC 50ms (mOhm)	R_DC 50 ms PEC (mOhm)
0.0935	5985.14	4.0030	4.0028	-0.0604	6.00	0.00	-0.750			
0.0937	5999.61	4.0000	3.9998	-0.0893	6.00	0.00	-0.750			
0.0940	6019.02	3.9970	3.9970	-0.1177	6.00	0.00	-0.750			
0.0945	6046.05	3.9940	3.9939	-0.1447	6.00	0.00	-0.750			
0.0949	6076.29	3.9910	3.9909	-0.1702	6.00	0.00	-0.750			
0.0955	6111.62	3.9880	3.9879	-0.1910	6.00	0.00	-0.750			
0.0961	6151.39	3.9850	3.9854	-0.2174	6.00	-0.00	-0.750			
0.0968	6195.21	3.9820	3.9821	-0.2401	6.00	-0.00	-0.750			
0.0976	6243.28	3.9790	3.9788	-0.2625	6.00	-0.00	-0.750			
0.0984	6295.05	3.9760	3.9760	-0.2870	6.00	-0.00	-0.750			
0.0993	6352.63	3.9730	3.9731	-0.3070	6.00	-0.00	-0.750			
0.1002	6414.90	3.9700	3.9698	-0.3309	6.00	-0.00	-0.750			
0.1013	6480.50	3.9670	3.9671	-0.3550	6.00	-0.00	-0.750			
0.1023	6549.70	3.9640	3.9640	-0.3782	5.99	-0.01	-0.750			
0.1035	6624.04	3.9610	3.9610	-0.4044	5.99	-0.01	-0.750			
0.1048	6704.91	3.9580	3.9580	-0.4272	5.99	-0.01	-0.750			
0.1061	6789.62	3.9550	3.9549	-0.4462	5.99	-0.01	-0.750			
0.1075	6878.40	3.9520	3.9520	-0.4682	5.99	-0.01	-0.750			
0.1089	6970.20	3.9490	3.9491	-0.4876	5.99	-0.01	-0.750			
0.1104	7064.97	3.9460	3.9458	-0.5042	5.99	-0.01	-0.750			
0.1119	7163.63	3.9430	3.9430	-0.5187	5.99	-0.01	-0.750			
0.1135	7264.86	3.9400	3.9401	-0.5369	5.99	-0.01	-0.750			
0.1152	7371.23	3.9370	3.9370	-0.5565	5.99	-0.01	-0.750			
0.1169	7479.93	3.9340	3.9339	-0.5688	5.99	-0.01	-0.750			
0.1186	7590.05	3.9310	3.9310	-0.5802	5.99	-0.01	-0.750			
0.1204	7702.40	3.9280	3.9281	-0.5938	5.99	-0.01	-0.750			
0.1222	7818.74	3.9250	3.9249	-0.6051	5.99	-0.01	-0.750			
0.1240	7935.81	3.9220	3.9220	-0.6173	5.99	-0.01	-0.750			
0.1258	8053.99	3.9190	3.9190	-0.6272	6.00	-0.00	-0.750			
0.1278	8176.68	3.9160	3.9160	-0.6384	6.00	0.00	-0.750			
0.1298	8304.70	3.9130	3.9129	-0.6429	6.00	0.00	-0.750			
0.1317	8427.48	3.9100	3.9100	-0.6462	6.01	0.01	-0.750			
0.1337	8555.50	3.9070	3.9072	-0.6424	6.01	0.01	-0.750			
0.1356	8678.57	3.9040	3.9039	-0.6359	6.02	0.02	-0.750			
0.1375	8797.06	3.9010	3.9009	-0.6345	6.02	0.02	-0.750			
0.1393	8915.08	3.8980	3.8985	-0.6387	6.03	0.03	-0.750			
0.1412	9038.46	3.8950	3.8945	-0.6498	6.03	0.03	-0.750			
0.1432	9163.51	3.8920	3.8918	-0.6567	6.04	0.04	-0.750			
0.1451	9287.97	3.8890	3.8890	-0.6663	6.05	0.05	-0.750			
0.1472	9419.60	3.8860	3.8860	-0.6829	6.05	0.05	-0.750			
0.1493	9556.20	3.8830	3.8829	-0.6912	6.06	0.06	-0.750			
0.1514	9688.39	3.8800	3.8800	-0.6971	6.06	0.06	-0.750			
0.1535	9820.86	3.8770	3.8771	-0.7006	6.06	0.06	-0.750			
0.1556	9959.98	3.8740	3.8741	-0.7063	6.07	0.07	-0.750			
0.1577	10095.87	3.8710	3.8708	-0.7068	6.07	0.07	-0.750			
0.1599	10231.11	3.8680	3.8680	-0.7017	6.07	0.07	-0.750			
0.1620	10365.07	3.8650	3.8649	-0.7053	6.08	0.08	-0.750			
0.1641	10499.89	3.8620	3.8621	-0.7075	6.09	0.09	-0.750			
0.1662	10634.88	3.8590	3.8590	-0.7075	6.09	0.09	-0.750			
0.1683	10772.58	3.8560	3.8559	-0.7106	6.10	0.10	-0.750			
0.1705	10909.93	3.8530	3.8531	-0.7169	6.11	0.11	-0.750			
0.1726	11048.52	3.8500	3.8499	-0.7172	6.12	0.12	-0.750			
0.1748	11186.96	3.8470	3.8469	-0.7172	6.12	0.12	-0.750			
0.1769	11323.02	3.8440	3.8439	-0.7118	6.13	0.13	-0.750			
0.1791	11459.51	3.8410	3.8412	-0.7150	6.14	0.14	-0.750			
0.1812	11597.09	3.8380	3.8378	-0.7173	6.14	0.14	-0.750			
0.1833	11734.28	3.8350	3.8350	-0.7211	6.15	0.15	-0.750			
0.1855	11872.96	3.8320	3.8320	-0.7178	6.16	0.16	-0.750			
0.1877	12011.85	3.8290	3.8289	-0.7215	6.17	0.17	-0.750			
0.1899	12153.07	3.8260	3.8261	-0.7258	6.18	0.18	-0.750			
0.1921	12291.33	3.8230	3.8231	-0.7207	6.18	0.18	-0.750			
0.1942	12428.82	3.8200	3.8199	-0.7207	6.19	0.19	-0.750			
0.1964	12567.50	3.8170	3.8171	-0.7187	6.20	0.20	-0.750			
0.1985	12704.05	3.8140	3.8138	-0.7147	6.21	0.21	-0.750			
0.2006	12840.49	3.8110	3.8112	-0.7224	6.22	0.22	-0.750			
0.2028	12978.10	3.8080	3.8080	-0.7278	6.23	0.23	-0.750			
0.2050	13121.66	3.8050	3.8049	-0.7306	6.24	0.24	-0.750			
0.2072	13263.13	3.8020	3.8018	-0.7295	6.24	0.24	-0.750			
0.2094	13402.05	3.7990	3.7992	-0.7288	6.25	0.25	-0.750			
0.2116	13542.51	3.7960	3.7962	-0.7306	6.26	0.26	-0.750			
0.2138	13681.04	3.7930	3.7929	-0.7338	6.27	0.27	-0.750			
0.2159	13818.45	3.7900	3.7900	-0.7319	6.27	0.27	-0.750			
0.2182	13962.35	3.7870	3.7869	-0.7399	6.28	0.28	-0.750			
0.2204	14108.26	3.7840	3.7840	-0.7490	6.29	0.29	-0.750			
0.2227	14251.12	3.7810	3.7810	-0.7480	6.30	0.30	-0.750			
0.2249	14392.06	3.7780	3.7780	-0.7590	6.30	0.30	-0.750			
0.2272	14539.87	3.7750	3.7750	-0.7563	6.31	0.31	-0.750			
0.2295	14684.80	3.7720	3.7719	-0.7494	6.32	0.32	-0.750			
0.2317	14830.09	3.7690	3.7689	-0.7565	6.32	0.32	-0.750			
0.2340	14976.29	3.7660	3.7663	-0.7574	6.33	0.33	-0.750			
0.2363	15121.42	3.7630	3.7630	-0.7575	6.34	0.34	-0.750			
0.2385	15265.02	3.7600	3.7599	-0.7639	6.35	0.35	-0.750			
0.2408	15411.59	3.7570	3.7571	-0.7762	6.35	0.35	-0.750			
0.2431	15561.04	3.7540	3.7539	-0.7776	6.36	0.36	-0.750			
0.2455	15713.34	3.7510	3.7510	-0.7802	6.37	0.37	-0.750			
0.2478	15861.01	3.7480	3.7480	-0.7762	6.37	0.37	-0.750			
0.2502	16009.98	3.7450	3.7450	-0.7822	6.38	0.38	-0.750			
0.2525	16158.74	3.7420	3.7420	-0.7860	6.39	0.39	-0.750			
0.2548	16306.20	3.7390	3.7390	-0.7910	6.39	0.39	-0.750			
0.2572	16462.46	3.7360	3.7360	-0.8011	6.40	0.40	-0.750			
0.2597	16618.49	3.7330	3.7330	-0.8063	6.40	0.40	-0.750			
0.2621	16774.22	3.7300	3.7300	-0.8213	6.41	0.41	-0.750			
0.2646	16933.58	3.7270	3.7269	-0.8168	6.42	0.42	-0.750			
0.2670	17089.45	3.7240	3.7240	-0.8171	6.43	0.43	-0.750			
0.2695	17246.95	3.7210	3.7208	-0.8179	6.44	0.44	-0.750			
0.2719	17402.64	3.7180	3.7180	-0.8222	6.44	0.44	-0.750			
0.2744	17560.32	3.7150	3.7150	-0.8373	6.45	0.45	-0.750			
0.2769	17721.31	3.7120	3.7118	-0.8432	6.45	0.45	-0.750			
0.2794	17882.94	3.7090	3.7090	-0.8444	6.45	0.45	-0.750			
0.2820	18050.96	3.7060	3.7059	-0.8563	6.46	0.46	-0.750			
0.2846	18215.76	3.7030	3.7032	-0.8598	6.46	0.46	-0.750			
0.2872	18382.24	3.7000	3.6999	-0.8698	6.47	0.47	-0.750			
0.2898	18546.69	3.6970	3.6968	-0.8677	6.48	0.48	-0.750			
0.2924	18713.55	3.6940	3.6940	-0.8687	6.49	0.49	-0.750			
0.2950	18883.02	3.6910	3.6908	-0.8808	6.50	0.50	-0.750			
0.2977	19052.62	3.6880	3.6879	-0.8962	6.50	0.50	-0.750			
0.3004	19225.64	3.6850	3.6850	-0.9000	6.50	0.50	-0.750			
0.3031	19395.31	3.6820	3.6819	-0.9029	6.51	0.51	-0.750			
0.3058	19572.64	3.6790	3.6789	-0.9205	6.51	0.51	-0.750			
0.3086	19748.33	3.6760	3.6766	-0.9217	6.51	0.51	-0.750			
0.3113	19925.33	3.6730	3.6729	-0.9342	6.51	0.51	-0.750			
0.3141	20105.37	3.6700	3.6701	-0.9418	6.52	0.52	-0.750			
0.3170	20286.83	3.6670	3.6667	-0.9503	6.52	0.52	-0.750			
0.3199	20473.18	3.6640	3.6641	-0.9589	6.53	0.53	-0.750			
0.3228	20658.06	3.6610	3.6609	-0.9585	6.53	0.53	-0.750			
0.3257	20845.23	3.6580	3.6580	-0.9743	6.54	0.54	-0.750			
0.3286	21032.74	3.6550	3.6550	-0.9749	6.54	0.54	-0.750			
0.3315	21216.49	3.6520	3.6518	-0.9723	6.55	0.55	-0.750			
0.3345	21405.00	3.6490	3.6492	-0.9838	6.55	0.55	-0.750			
0.3374	21596.03	3.6460	3.6459	-1.0016	6.56	0.56	-0.750			
0.3405	21790.58	3.6430	3.6428	-1.0070	6.56	0.56	-0.750			
0.3435	21984.14	3.6400	3.6399	-1.0015	6.57	0.57	-0.750			
0.3466	22180.51	3.6370	3.6374	-1.0199	6.57	0.57	-0.750			
0.3496	22376.74	3.6340	3.6340	-1.0227	6.57	0.57	-0.750			
0.3527	22571.15	3.6310	3.6309	-1.0283	6.57	0.57	-0.750			
0.3557	22761.94	3.6280	3.6280	-1.0231	6.57	0.57	-0.750			
0.3588	22965.04	3.6250	3.6253	-1.0557	6.57	0.57	-0.750			
0.3620	23170.53	3.6220	3.6219	-1.0637	6.58	0.58	-0.750			
0.3653	23378.73	3.6190	3.6190	-1.0711	6.58	0.58	-0.750			
0.3685	23583.39	3.6160	3.6160	-1.0761	6.59	0.59	-0.750			
0.3717	23788.48	3.6130	3.6131	-1.0920	6.59	0.59	-0.750			
0.3750	23999.44	3.6100	3.6099	-1.0959	6.59	0.59	-0.750			
0.3783	24210.01	3.6070	3.6070	-1.1020	6.58	0.58	-0.750			
0.3816	24422.68	3.6040	3.6038	-1.1056	6.58	0.58	-0.750			
0.3850	24638.42	3.6010	3.6007	-1.1254	6.58	0.58	-0.750			
0.3884	24854.93	3.5980	3.5980	-1.1291	6.59	0.59	-0.750			
0.3917	25067.87	3.5950	3.5951	-1.1433	6.60	0.60	-0.750			
0.3951	25287.60	3.5920	3.5921	-1.1490	6.61	0.61	-0.750			
0.3987	25516.76	3.5890	3.5888	-1.1691	6.61	0.61	-0.750			
0.4022	25741.49	3.5860	3.5858	-1.1758	6.61	0.61	-0.750			
0.4058	25968.53	3.5830	3.5832	-1.1770	6.61	0.61	-0.750	0.512	1.069	
0.4093	26194.10	3.5800	3.5801	-1.1904	6.61	0.61	-0.750			
0.4129	26426.39	3.5770	3.5769	-1.1996	6.61	0.61	-0.750			
0.4165	26655.32	3.5740	3.5739	-1.2038	6.61	0.61	-0.750			
0.4201	26887.25	3.5710	3.5709	-1.2037	6.61	0.61	-0.750			
0.4238	27124.01	3.5680	3.5679	-1.2329	6.61	0.61	-0.750			
0.4275	27358.92	3.5650	3.5649	-1.2317	6.62	0.62	-0.750			
0.4311	27592.66	3.5620	3.5620	-1.2492	6.62	0.62	-0.750			
0.4348	27830.05	3.5590	3.5591	-1.2627	6.62	0.62	-0.750			
0.4387	28079.02	3.5560	3.5560	-1.2832	6.62	0.62	-0.750			
0.4426	28327.47	3.5530	3.5529	-1.2951	6.63	0.63	-0.750			
0.4465	28576.44	3.5500	3.5505	-1.3068	6.63	0.63	-0.750			
0.4506	28835.83	3.5470	3.5469	-1.3208	6.64	0.64	-0.750			
0.4545	29089.84	3.5440	3.5440	-1.3294	6.64	0.64	-0.750			
0.4585	29342.49	3.5410	3.5408	-1.3346	6.65	0.65	-0.750			
0.4625	29598.93	3.5380	3.5379	-1.3440	6.66	0.66	-0.750			
0.4665	29858.51	3.5350	3.5349	-1.3750	6.66	0.66	-0.750			
0.4707	30125.04	3.5320	3.5318	-1.3928	6.67	0.67	-0.750			
0.4750	30401.63	3.5290	3.5288	-1.4085	6.68	0.68	-0.750			
0.4792	30671.98	3.5260	3.5264	-1.4245	6.68	0.68	-0.750			
0.4836	30949.53	3.5230	3.5233	-1.4206	6.69	0.69	-0.750			
0.4879	31223.16	3.5200	3.5201	-1.4283	6.69	0.69	-0.750			
0.4921	31491.33	3.5170	3.5169	-1.4446	6.69	0.69	-0.750			
0.4965	31774.31	3.5140	3.5141	-1.4514	6.69	0.69	-0.750			
0.5009	32057.38	3.5110	3.5112	-1.4621	6.71	0.71	-0.750			
0.5053	32336.02	3.5080	3.5082	-1.4482	6.72	0.72	-0.750			
0.5096	32614.22	3.5050	3.5052	-1.4563	6.73	0.73	-0.750			
0.5140	32897.85	3.5020	3.5018	-1.4599	6.74	0.74	-0.750			
0.5184	33175.60	3.4990	3.4989	-1.4738	6.75	0.75	-0.750			
0.5226	33448.16	3.4960	3.4959	-1.5589	6.75	0.75	-0.750			
0.5275	33757.35	3.4930	3.4929	-1.6354	6.76	0.76	-0.750			
0.5327	34091.05	3.4900	3.4895	-1.6600	6.77	0.77	-0.750			
0.5378	34419.51	3.4870	3.4879	-1.6633	6.78	0.78	-0.750			
0.5431	34760.31	3.4840	3.4842	-1.6836	6.80	0.80	-0.750			
0.5479	35067.28	3.4810	3.4810	-1.5912	6.82	0.82	-0.750			
0.5524	35351.40	3.4780	3.4779	-1.5060	6.83	0.83	-0.750			
0.5568	35634.00	3.4750	3.4750	-1.4734	6.84	0.84	-0.750			
0.5612	35916.57	3.4720	3.4720	-1.4674	6.86	0.86	-0.750			
0.5656	36200.46	3.4690	3.4689	-1.4711	6.87	0.87	-0.750			
0.5700	36482.93	3.4660	3.4661	-1.4714	6.89	0.89	-0.750			
0.5745	36767.42	3.4630	3.4629	-1.4561	6.90	0.90	-0.750			
0.5789	37048.07	3.4600	3.4599	-1.4480	6.91	0.91	-0.750			
0.5832	37325.96	3.4570	3.4572	-1.4410	6.92	0.92	-0.750			
0.5875	37599.63	3.4540	3.4540	-1.4258	6.93	0.93	-0.750			
0.5918	37872.69	3.4510	3.4508	-1.4126	6.95	0.95	-0.750			
0.5959	38139.84	3.4480	3.4481	-1.4017	6.96	0.96	-0.750			
0.6002	38411.42	3.4450	3.4450	-1.3955	6.98	0.98	-0.750			
0.6043	38677.97	3.4420	3.4420	-1.3786	6.99	0.99	-0.750			
0.6084	38939.82	3.4390	3.4391	-1.3676	7.01	1.01	-0.750			
0.6126	39204.45	3.4360	3.4359	-1.3488	7.02	1.02	-0.750			
0.6166	39462.25	3.4330	3.4329	-1.3245	7.04	1.04	-0.750			
0.6205	39713.96	3.4300	3.4302	-1.3029	7.05	1.05	-0.750			
0.6244	39961.61	3.4270	3.4269	-1.2823	7.07	1.07	-0.750			
0.6282	40205.97	3.4240	3.4240	-1.2596	7.08	1.08	-0.750			
0.6319	40443.79	3.4210	3.4210	-1.2344	7.10	1.10	-0.750			
0.6356	40676.57	3.4180	3.4180	-1.2093	7.12	1.12	-0.750			
0.6393	40914.56	3.4150	3.4150	-1.1899	7.13	1.13	-0.750			
0.6428	41138.55	3.4120	3.4120	-1.1577	7.14	1.14	-0.750			
0.6462	41356.07	3.4090	3.4092	-1.1334	7.15	1.15	-0.750			
0.6496	41571.60	3.4060	3.4059	-1.1084	7.17	1.17	-0.750			
0.6528	41780.67	3.4030	3.4029	-1.0819	7.18	1.18	-0.750			
0.6560	41985.80	3.4000	3.4000	-1.0579	7.20	1.20	-0.750			
0.6592	42189.26	3.3970	3.3971	-1.0377	7.21	1.21	-0.750			
0.6623	42386.61	3.3940	3.3940	-1.0100	7.23	1.23	-0.750			
0.6653	42576.36	3.3910	3.3910	-0.9799	7.24	1.24	-0.750			
0.6681	42761.19	3.3880	3.3880	-0.9539	7.26	1.26	-0.750			
0.6710	42942.59	3.3850	3.3851	-0.9294	7.27	1.27	-0.750			
0.6737	43117.55	3.3820	3.3819	-0.9061	7.29	1.29	-0.750			
0.6764	43288.68	3.3790	3.3790	-0.8837	7.30	1.30	-0.750			
0.6790	43456.10	3.3760	3.3760	-0.8603	7.32	1.32	-0.750			
0.6816	43620.11	3.3730	3.3729	-0.8411	7.34	1.34	-0.750			
0.6840	43778.35	3.3700	3.3702	-0.8175	7.35	1.35	-0.750			
0.6865	43933.14	3.3670	3.3669	-0.7972	7.36	1.36	-0.750			
0.6888	44084.77	3.3640	3.3640	-0.7780	7.38	1.38	-0.750			
0.6911	44231.70	3.3610	3.3610	-0.7559	7.39	1.39	-0.750			
0.6933	44374.03	3.3580	3.3580	-0.7389	7.40	1.40	-0.750			
0.6955	44514.66	3.3550	3.3550	-0.7212	7.41	1.41	-0.750			
0.6977	44650.64	3.3520	3.3519	-0.7035	7.42	1.42	-0.750			
0.6997	44783.51	3.3490	3.3490	-0.6880	7.43	1.43	-0.750			
0.7018	44914.78	3.3460	3.3460	-0.6703	7.45	1.45	-0.750			
0.7038	45042.28	3.3430	3.3429	-0.6532	7.46	1.46	-0.750			
0.7057	45166.50	3.3400	3.3400	-0.6391	7.47	1.47	-0.750			
0.7076	45286.99	3.3370	3.3370	-0.6212	7.48	1.48	-0.750			
0.7094	45404.51	3.3340	3.3338	-0.6074	7.50	1.50	-0.750			
0.7112	45519.20	3.3310	3.3310	-0.5925	7.51	1.51	-0.750			
0.7130	45630.14	3.3280	3.3280	-0.5808	7.52	1.52	-0.750			
0.7147	45740.88	3.3250	3.3250	-0.5739	7.53	1.53	-0.750			
0.7164	45848.91	3.3220	3.3220	-0.5436	7.54	1.54	-0.750			
