Ah_balance (normalized)	Ah_balance (mAh)	Voltage - fit (V)	Voltage -  interpolate (V)	dQ/dV (1/V)	Temperature (°C)	Temperature - diff (°C)	Current (C)	R_DC 0ms (mOhm)	R_DC 50ms (mOhm)	R_DC 50 ms PEC (mOhm)
0.0707	4524.19	3.9990	3.9986	-0.0923	5.99	0.01	-0.750			
0.0710	4545.31	3.9960	3.9959	-0.1233	5.99	0.01	-0.750			
0.0714	4572.69	3.9930	3.9929	-0.1514	5.99	0.01	-0.750			
0.0719	4604.40	3.9900	3.9900	-0.1778	5.99	0.01	-0.750			
0.0725	4641.08	3.9870	3.9871	-0.2042	5.99	0.01	-0.750			
0.0732	4683.74	3.9840	3.9841	-0.2297	5.99	0.01	-0.750			
0.0739	4730.14	3.9810	3.9809	-0.2542	5.99	0.01	-0.750			
0.0747	4781.24	3.9780	3.9780	-0.2781	5.98	0.00	-0.750			
0.0756	4837.04	3.9750	3.9750	-0.3008	5.98	0.00	-0.750			
0.0765	4896.71	3.9720	3.9720	-0.3270	5.98	-0.00	-0.750			
0.0775	4961.78	3.9690	3.9690	-0.3537	5.98	-0.00	-0.750			
0.0786	5031.62	3.9660	3.9660	-0.3792	5.97	-0.01	-0.750			
0.0798	5107.12	3.9630	3.9630	-0.4068	5.97	-0.01	-0.750			
0.0811	5188.29	3.9600	3.9600	-0.4325	5.97	-0.01	-0.750			
0.0824	5273.97	3.9570	3.9570	-0.4597	5.97	-0.01	-0.750			
0.0838	5365.15	3.9540	3.9540	-0.4877	5.96	-0.02	-0.750			
0.0853	5460.85	3.9510	3.9510	-0.5118	5.96	-0.02	-0.750			
0.0869	5562.35	3.9480	3.9479	-0.5348	5.95	-0.03	-0.750			
0.0886	5667.58	3.9450	3.9451	-0.5586	5.95	-0.03	-0.750			
0.0903	5777.63	3.9420	3.9420	-0.5808	5.95	-0.03	-0.750			
0.0921	5891.37	3.9390	3.9390	-0.6016	5.95	-0.03	-0.750			
0.0939	6007.61	3.9360	3.9360	-0.6213	5.95	-0.03	-0.750			
0.0958	6129.38	3.9330	3.9330	-0.6400	5.95	-0.03	-0.750			
0.0978	6256.17	3.9300	3.9300	-0.6564	5.95	-0.03	-0.750			
0.0998	6384.33	3.9270	3.9270	-0.6697	5.95	-0.03	-0.750			
0.1018	6514.83	3.9240	3.9241	-0.6816	5.95	-0.03	-0.750			
0.1039	6646.79	3.9210	3.9210	-0.6926	5.95	-0.03	-0.750			
0.1059	6780.03	3.9180	3.9180	-0.7036	5.95	-0.03	-0.750			
0.1081	6915.95	3.9150	3.9151	-0.7148	5.95	-0.03	-0.750			
0.1102	7055.44	3.9120	3.9119	-0.7254	5.95	-0.03	-0.750			
0.1124	7193.62	3.9090	3.9090	-0.7484	5.95	-0.03	-0.750			
0.1147	7338.60	3.9060	3.9060	-0.7645	5.95	-0.03	-0.750			
0.1170	7488.67	3.9030	3.9029	-0.7764	5.95	-0.03	-0.750			
0.1194	7643.17	3.9000	3.9000	-0.7828	5.95	-0.03	-0.750			
0.1218	7795.35	3.8970	3.8971	-0.7867	5.95	-0.03	-0.750			
0.1242	7946.96	3.8940	3.8941	-0.7867	5.95	-0.03	-0.750			
0.1265	8097.07	3.8910	3.8910	-0.7829	5.95	-0.03	-0.750			
0.1288	8243.21	3.8880	3.8879	-0.7736	5.95	-0.03	-0.750			
0.1312	8396.80	3.8850	3.8850	-0.7668	5.96	-0.02	-0.750			
0.1335	8544.00	3.8820	3.8820	-0.7573	5.96	-0.02	-0.750			
0.1358	8690.62	3.8790	3.8790	-0.7553	5.97	-0.01	-0.750			
0.1380	8829.63	3.8760	3.8761	-0.7531	5.97	-0.01	-0.750			
0.1401	8966.38	3.8730	3.8728	-0.7667	5.97	-0.01	-0.750			
0.1424	9113.81	3.8700	3.8700	-0.7954	5.98	-0.00	-0.750			
0.1449	9273.48	3.8670	3.8668	-0.8106	5.98	-0.00	-0.750			
0.1474	9436.74	3.8640	3.8640	-0.8263	5.98	0.00	-0.750			
0.1500	9602.12	3.8610	3.8611	-0.8138	5.99	0.01	-0.750			
0.1525	9759.66	3.8580	3.8581	-0.8011	5.99	0.01	-0.750			
0.1548	9908.75	3.8550	3.8549	-0.7927	6.00	0.02	-0.750			
0.1570	10050.45	3.8520	3.8519	-0.7753	6.00	0.02	-0.750			
0.1593	10194.65	3.8490	3.8490	-0.7884	6.00	0.02	-0.750			
0.1617	10347.73	3.8460	3.8461	-0.8117	6.01	0.03	-0.750			
0.1642	10507.66	3.8430	3.8431	-0.8338	6.01	0.03	-0.750			
0.1668	10673.87	3.8400	3.8398	-0.8493	6.01	0.03	-0.750			
0.1694	10840.47	3.8370	3.8372	-0.8540	6.02	0.04	-0.750			
0.1720	11006.52	3.8340	3.8341	-0.8518	6.02	0.04	-0.750			
0.1746	11171.80	3.8310	3.8310	-0.8467	6.03	0.05	-0.750			
0.1771	11331.70	3.8280	3.8280	-0.8401	6.03	0.05	-0.750			
0.1795	11489.75	3.8250	3.8250	-0.8320	6.04	0.06	-0.750			
0.1820	11648.04	3.8220	3.8220	-0.8327	6.05	0.07	-0.750			
0.1845	11808.76	3.8190	3.8190	-0.8366	6.06	0.08	-0.750			
0.1870	11970.33	3.8160	3.8160	-0.8373	6.06	0.08	-0.750			
0.1895	12131.12	3.8130	3.8130	-0.8338	6.07	0.09	-0.750			
0.1921	12291.77	3.8100	3.8100	-0.8337	6.08	0.10	-0.750			
0.1946	12451.42	3.8070	3.8070	-0.8347	6.08	0.10	-0.750			
0.1971	12611.65	3.8040	3.8039	-0.8327	6.08	0.10	-0.750			
0.1996	12771.94	3.8010	3.8009	-0.8289	6.09	0.11	-0.750			
0.2020	12930.02	3.7980	3.7981	-0.8303	6.09	0.11	-0.750			
0.2045	13089.87	3.7950	3.7950	-0.8324	6.10	0.12	-0.750			
0.2070	13250.75	3.7920	3.7919	-0.8339	6.10	0.12	-0.750			
0.2095	13410.88	3.7890	3.7890	-0.8280	6.10	0.12	-0.750			
0.2121	13572.02	3.7860	3.7860	-0.8245	6.11	0.13	-0.750			
0.2145	13729.61	3.7830	3.7832	-0.8173	6.11	0.13	-0.750			
0.2169	13884.38	3.7800	3.7800	-0.8190	6.12	0.14	-0.750			
0.2194	14038.50	3.7770	3.7769	-0.8189	6.12	0.14	-0.750			
0.2218	14192.31	3.7740	3.7740	-0.8191	6.13	0.15	-0.750			
0.2243	14352.79	3.7710	3.7710	-0.8337	6.13	0.15	-0.750			
0.2268	14515.86	3.7680	3.7681	-0.8448	6.14	0.16	-0.750			
0.2294	14679.46	3.7650	3.7649	-0.8508	6.14	0.16	-0.750			
0.2319	14844.07	3.7620	3.7620	-0.8577	6.14	0.16	-0.750			
0.2345	15009.14	3.7590	3.7589	-0.8582	6.15	0.17	-0.750			
0.2371	15175.00	3.7560	3.7559	-0.8588	6.15	0.17	-0.750			
0.2397	15340.71	3.7530	3.7531	-0.8567	6.15	0.17	-0.750			
0.2423	15504.82	3.7500	3.7500	-0.8559	6.16	0.18	-0.750			
0.2448	15667.31	3.7470	3.7469	-0.8547	6.17	0.19	-0.750			
0.2473	15828.57	3.7440	3.7441	-0.8506	6.18	0.20	-0.750			
0.2499	15995.10	3.7410	3.7409	-0.8586	6.19	0.21	-0.750			
0.2525	16159.71	3.7380	3.7380	-0.8625	6.19	0.21	-0.750			
0.2551	16325.96	3.7350	3.7350	-0.8676	6.20	0.22	-0.750			
0.2577	16493.23	3.7320	3.7320	-0.8708	6.21	0.23	-0.750			
0.2603	16660.75	3.7290	3.7289	-0.8679	6.21	0.23	-0.750			
0.2629	16828.39	3.7260	3.7260	-0.8670	6.22	0.24	-0.750			
0.2655	16993.42	3.7230	3.7230	-0.8711	6.22	0.24	-0.750			
0.2681	17160.97	3.7200	3.7200	-0.8712	6.23	0.25	-0.750			
0.2707	17326.71	3.7170	3.7170	-0.8720	6.24	0.26	-0.750			
0.2733	17494.39	3.7140	3.7140	-0.8765	6.24	0.26	-0.750			
0.2760	17664.28	3.7110	3.7110	-0.8837	6.25	0.27	-0.750			
0.2787	17834.69	3.7080	3.7080	-0.8907	6.25	0.27	-0.750			
0.2813	18005.94	3.7050	3.7050	-0.8953	6.25	0.27	-0.750			
0.2840	18177.69	3.7020	3.7020	-0.8965	6.25	0.27	-0.750			
0.2867	18350.74	3.6990	3.6990	-0.9029	6.25	0.27	-0.750			
0.2895	18525.21	3.6960	3.6961	-0.9065	6.25	0.27	-0.750			
0.2922	18700.03	3.6930	3.6930	-0.9122	6.26	0.28	-0.750			
0.2949	18874.91	3.6900	3.6900	-0.9181	6.27	0.29	-0.750			
0.2977	19051.00	3.6870	3.6870	-0.9234	6.28	0.30	-0.750			
0.3004	19227.71	3.6840	3.6840	-0.9337	6.29	0.31	-0.750			
0.3032	19407.94	3.6810	3.6809	-0.9449	6.29	0.31	-0.750			
0.3061	19590.97	3.6780	3.6779	-0.9556	6.30	0.32	-0.750			
0.3090	19775.78	3.6750	3.6750	-0.9679	6.30	0.32	-0.750			
0.3119	19963.24	3.6720	3.6720	-0.9758	6.31	0.33	-0.750			
0.3149	20152.45	3.6690	3.6690	-0.9866	6.31	0.33	-0.750			
0.3179	20342.84	3.6660	3.6660	-1.0012	6.32	0.34	-0.750			
0.3208	20534.17	3.6630	3.6630	-1.0067	6.32	0.34	-0.750			
0.3239	20729.41	3.6600	3.6600	-1.0155	6.33	0.35	-0.750			
0.3270	20925.75	3.6570	3.6571	-1.0369	6.33	0.35	-0.750			
0.3301	21124.73	3.6540	3.6540	-1.0473	6.33	0.35	-0.750			
0.3333	21328.17	3.6510	3.6509	-1.0612	6.33	0.35	-0.750			
0.3364	21531.27	3.6480	3.6479	-1.0755	6.33	0.35	-0.750			
0.3397	21738.12	3.6450	3.6452	-1.1021	6.33	0.35	-0.750			
0.3430	21953.99	3.6420	3.6420	-1.1161	6.34	0.36	-0.750			
0.3464	22171.76	3.6390	3.6389	-1.1294	6.34	0.36	-0.750			
0.3498	22389.22	3.6360	3.6359	-1.1355	6.35	0.37	-0.750			
0.3533	22608.37	3.6330	3.6329	-1.1554	6.35	0.37	-0.750			
0.3567	22831.00	3.6300	3.6300	-1.1663	6.36	0.38	-0.750			
0.3602	23054.45	3.6270	3.6270	-1.1768	6.36	0.38	-0.750			
0.3637	23278.58	3.6240	3.6242	-1.1983	6.37	0.39	-0.750			
0.3674	23514.94	3.6210	3.6210	-1.2259	6.37	0.39	-0.750			
0.3711	23752.46	3.6180	3.6179	-1.2440	6.37	0.39	-0.750			
0.3749	23992.04	3.6150	3.6149	-1.2679	6.37	0.39	-0.750			
0.3787	24237.79	3.6120	3.6121	-1.2880	6.37	0.39	-0.750			
0.3826	24489.28	3.6090	3.6089	-1.3044	6.38	0.40	-0.750			
0.3866	24739.55	3.6060	3.6059	-1.3209	6.39	0.41	-0.750			
0.3905	24993.94	3.6030	3.6030	-1.3326	6.39	0.41	-0.750			
0.3946	25253.92	3.6000	3.6000	-1.3555	6.39	0.41	-0.750	0.481	1.151	
0.3986	25513.38	3.5970	3.5970	-1.3760	6.40	0.42	-0.750			
0.4028	25779.17	3.5940	3.5941	-1.3880	6.40	0.42	-0.750			
0.4070	26047.32	3.5910	3.5909	-1.4116	6.40	0.42	-0.750			
0.4113	26321.25	3.5880	3.5879	-1.4415	6.41	0.43	-0.750			
0.4156	26599.96	3.5850	3.5850	-1.4599	6.41	0.43	-0.750			
0.4201	26883.93	3.5820	3.5819	-1.4877	6.41	0.43	-0.750			
0.4246	27173.38	3.5790	3.5789	-1.5105	6.41	0.43	-0.750			
0.4291	27464.92	3.5760	3.5759	-1.5222	6.41	0.43	-0.750			
0.4338	27761.32	3.5730	3.5730	-1.5508	6.41	0.43	-0.750			
0.4384	28059.71	3.5700	3.5700	-1.5583	6.41	0.43	-0.750			
0.4431	28359.47	3.5670	3.5669	-1.5778	6.41	0.43	-0.750			
0.4480	28668.97	3.5640	3.5639	-1.6033	6.42	0.44	-0.750			
0.4528	28976.40	3.5610	3.5610	-1.6199	6.42	0.44	-0.750			
0.4577	29290.04	3.5580	3.5582	-1.6376	6.43	0.45	-0.750			
0.4626	29608.02	3.5550	3.5550	-1.6601	6.43	0.45	-0.750			
0.4676	29926.17	3.5520	3.5519	-1.6800	6.44	0.46	-0.750			
0.4727	30250.63	3.5490	3.5488	-1.7158	6.44	0.46	-0.750			
0.4779	30583.91	3.5460	3.5460	-1.7369	6.45	0.47	-0.750			
0.4831	30919.65	3.5430	3.5432	-1.7559	6.45	0.47	-0.750			
0.4885	31263.85	3.5400	3.5400	-1.7654	6.45	0.47	-0.750			
0.4938	31604.29	3.5370	3.5370	-1.7696	6.46	0.48	-0.750			
0.4991	31943.92	3.5340	3.5340	-1.7712	6.47	0.49	-0.750			
0.5045	32284.85	3.5310	3.5308	-1.7839	6.47	0.49	-0.750			
0.5097	32621.82	3.5280	3.5281	-1.7920	6.48	0.50	-0.750			
0.5152	32971.12	3.5250	3.5249	-1.8077	6.49	0.51	-0.750			
0.5206	33319.45	3.5220	3.5220	-1.8200	6.49	0.51	-0.750			
0.5262	33675.11	3.5190	3.5190	-1.8043	6.49	0.51	-0.750			
0.5316	34024.64	3.5160	3.5159	-1.7983	6.50	0.52	-0.750			
0.5370	34364.82	3.5130	3.5131	-1.7849	6.51	0.53	-0.750			
0.5422	34703.42	3.5100	3.5101	-1.7700	6.52	0.54	-0.750			
0.5474	35034.03	3.5070	3.5069	-1.7802	6.52	0.54	-0.750			
0.5528	35377.60	3.5040	3.5041	-1.7777	6.53	0.55	-0.750			
0.5581	35720.47	3.5010	3.5008	-1.7925	6.55	0.57	-0.750			
0.5636	36073.34	3.4980	3.4981	-1.7933	6.56	0.58	-0.750			
0.5690	36413.54	3.4950	3.4949	-1.7748	6.56	0.58	-0.750			
0.5743	36754.45	3.4920	3.4919	-1.7493	6.57	0.59	-0.750			
0.5795	37087.12	3.4890	3.4889	-1.7342	6.58	0.60	-0.750			
0.5847	37421.44	3.4860	3.4860	-1.7167	6.60	0.62	-0.750			
0.5899	37752.86	3.4830	3.4830	-1.7108	6.61	0.63	-0.750			
0.5950	38082.90	3.4800	3.4801	-1.6916	6.62	0.64	-0.750			
0.6000	38399.38	3.4770	3.4772	-1.6572	6.63	0.65	-0.750			
0.6050	38717.29	3.4740	3.4738	-1.6408	6.64	0.66	-0.750			
0.6099	39030.73	3.4710	3.4710	-1.6160	6.64	0.66	-0.750			
0.6147	39337.88	3.4680	3.4681	-1.5881	6.65	0.67	-0.750			
0.6194	39639.63	3.4650	3.4649	-1.5601	6.67	0.69	-0.750			
0.6240	39937.49	3.4620	3.4621	-1.5341	6.68	0.70	-0.750			
0.6286	40232.28	3.4590	3.4590	-1.5111	6.70	0.72	-0.750			
0.6331	40520.65	3.4560	3.4559	-1.4818	6.71	0.73	-0.750			
0.6375	40801.67	3.4530	3.4530	-1.4577	6.72	0.74	-0.750			
0.6419	41079.19	3.4500	3.4499	-1.4252	6.73	0.75	-0.750			
0.6461	41350.94	3.4470	3.4469	-1.3966	6.74	0.76	-0.750			
0.6502	41613.77	3.4440	3.4441	-1.3698	6.75	0.77	-0.750			
0.6543	41874.97	3.4410	3.4409	-1.3309	6.76	0.78	-0.750			
0.6583	42131.05	3.4380	3.4379	-1.2992	6.77	0.79	-0.750			
0.6621	42375.69	3.4350	3.4350	-1.2632	6.78	0.80	-0.750			
0.6658	42610.75	3.4320	3.4320	-1.2319	6.80	0.82	-0.750			
0.6695	42848.40	3.4290	3.4289	-1.2077	6.81	0.83	-0.750			
0.6731	43076.02	3.4260	3.4259	-1.1750	6.82	0.84	-0.750			
0.6765	43296.76	3.4230	3.4232	-1.1476	6.83	0.85	-0.750			
0.6800	43518.93	3.4200	3.4199	-1.1226	6.84	0.86	-0.750			
0.6833	43731.69	3.4170	3.4170	-1.0916	6.85	0.87	-0.750			
0.6865	43937.99	3.4140	3.4139	-1.0580	6.86	0.88	-0.750			
0.6897	44137.83	3.4110	3.4110	-1.0273	6.87	0.89	-0.750			
0.6927	44331.52	3.4080	3.4080	-1.0024	6.89	0.91	-0.750			
0.6956	44520.77	3.4050	3.4050	-0.9717	6.91	0.93	-0.750			
0.6985	44704.07	3.4020	3.4020	-0.9393	6.92	0.94	-0.750			
0.7013	44883.72	3.3990	3.3992	-0.9158	6.94	0.96	-0.750			
0.7040	45055.49	3.3960	3.3960	-0.8851	6.95	0.97	-0.750			
0.7066	45222.82	3.3930	3.3930	-0.8605	6.97	0.99	-0.750			
0.7091	45385.11	3.3900	3.3899	-0.8316	6.98	1.00	-0.750			
0.7116	45541.45	3.3870	3.3870	-0.8062	6.99	1.01	-0.750			
0.7140	45694.37	3.3840	3.3842	-0.7787	7.00	1.02	-0.750			
0.7162	45839.89	3.3810	3.3810	-0.7230	7.01	1.03	-0.750			
