Ah_balance (normalized)	Ah_balance (mAh)	Voltage - fit (V)	Voltage -  interpolate (V)	dQ/dV (1/V)	Temperature (°C)	Temperature - diff (°C)	Current (C)	R_DC 0ms (mOhm)	R_DC 50ms (mOhm)	R_DC 50 ms PEC (mOhm)
0.1779	11388.08	4.0820	4.0819	0.7934	7.42	1.43	0.750			
0.1803	11537.69	4.0790	4.0791	0.7727	7.42	1.43	0.750			
0.1826	11685.42	4.0760	4.0762	0.7707	7.41	1.42	0.750			
0.1849	11833.65	4.0730	4.0728	0.7688	7.41	1.42	0.750			
0.1872	11980.43	4.0700	4.0700	0.7767	7.40	1.41	0.750			
0.1895	12127.37	4.0670	4.0671	0.7779	7.39	1.40	0.750			
0.1919	12279.98	4.0640	4.0640	0.7797	7.39	1.40	0.750			
0.1942	12430.79	4.0610	4.0610	0.7804	7.39	1.40	0.750			
0.1966	12580.57	4.0580	4.0581	0.7730	7.38	1.39	0.750			
0.1988	12725.64	4.0550	4.0551	0.7833	7.38	1.39	0.750			
0.2012	12876.11	4.0520	4.0519	0.7855	7.37	1.38	0.750			
0.2035	13026.21	4.0490	4.0485	0.7847	7.37	1.38	0.750			
0.2059	13178.27	4.0460	4.0463	0.7916	7.36	1.37	0.750			
0.2084	13337.36	4.0430	4.0430	0.7790	7.35	1.36	0.750			
0.2107	13486.66	4.0400	4.0398	0.7896	7.35	1.36	0.750			
0.2130	13633.04	4.0370	4.0371	0.7874	7.34	1.35	0.750			
0.2154	13783.84	4.0340	4.0342	0.7998	7.33	1.34	0.750			
0.2178	13939.86	4.0310	4.0314	0.8103	7.32	1.33	0.750			
0.2203	14097.84	4.0280	4.0282	0.8113	7.32	1.33	0.750			
0.2227	14255.52	4.0250	4.0250	0.8214	7.31	1.32	0.750			
0.2252	14415.20	4.0220	4.0220	0.8256	7.30	1.31	0.750			
0.2277	14572.81	4.0190	4.0189	0.8194	7.29	1.30	0.750			
0.2302	14729.93	4.0160	4.0163	0.8206	7.29	1.30	0.750			
0.2327	14890.40	4.0130	4.0130	0.8138	7.28	1.29	0.750			
0.2351	15046.18	4.0100	4.0100	0.8240	7.28	1.29	0.750			
0.2376	15203.98	4.0070	4.0070	0.8321	7.28	1.29	0.750			
0.2400	15362.38	4.0040	4.0041	0.8371	7.27	1.28	0.750			
0.2426	15523.37	4.0010	4.0014	0.8436	7.27	1.28	0.750			
0.2452	15690.64	3.9980	3.9981	0.8424	7.26	1.27	0.750			
0.2477	15851.70	3.9950	3.9950	0.8517	7.25	1.26	0.750			
0.2503	16016.67	3.9920	3.9920	0.8577	7.24	1.25	0.750			
0.2528	16179.69	3.9890	3.9890	0.8553	7.23	1.24	0.750			
0.2554	16343.50	3.9860	3.9861	0.8537	7.22	1.23	0.750			
0.2579	16507.89	3.9830	3.9832	0.8585	7.22	1.23	0.750			
0.2605	16669.75	3.9800	3.9800	0.8596	7.21	1.22	0.750			
0.2631	16836.38	3.9770	3.9770	0.8678	7.20	1.21	0.750			
0.2656	16999.71	3.9740	3.9737	0.8661	7.19	1.20	0.750			
0.2682	17166.91	3.9710	3.9712	0.8836	7.19	1.20	0.750			
0.2709	17340.61	3.9680	3.9681	0.8843	7.18	1.19	0.750			
0.2736	17510.80	3.9650	3.9650	0.8937	7.17	1.18	0.750			
0.2763	17685.61	3.9620	3.9620	0.9045	7.17	1.18	0.750			
0.2790	17853.84	3.9590	3.9587	0.8982	7.16	1.17	0.750			
0.2818	18033.35	3.9560	3.9560	0.8892	7.15	1.16	0.750			
0.2844	18200.62	3.9530	3.9532	0.9025	7.14	1.15	0.750			
0.2871	18372.33	3.9500	3.9500	0.9121	7.13	1.14	0.750			
0.2899	18552.64	3.9470	3.9470	0.9228	7.12	1.13	0.750			
0.2925	18722.73	3.9440	3.9440	0.9186	7.12	1.13	0.750			
0.2953	18901.65	3.9410	3.9412	0.9220	7.11	1.12	0.750			
0.2981	19080.52	3.9380	3.9381	0.9346	7.10	1.11	0.750			
0.3010	19262.20	3.9350	3.9350	0.9456	7.09	1.10	0.750			
0.3038	19440.33	3.9320	3.9316	0.9409	7.08	1.09	0.750			
0.3067	19626.90	3.9290	3.9291	0.9413	7.07	1.08	0.750			
0.3095	19808.82	3.9260	3.9260	0.9549	7.07	1.08	0.750			
0.3124	19991.37	3.9230	3.9232	0.9645	7.06	1.07	0.750			
0.3152	20175.98	3.9200	3.9199	0.9631	7.05	1.06	0.750			
0.3182	20363.66	3.9170	3.9170	0.9647	7.04	1.05	0.750			
0.3211	20547.32	3.9140	3.9141	0.9795	7.03	1.04	0.750			
0.3240	20736.44	3.9110	3.9112	0.9966	7.02	1.03	0.750			
0.3271	20931.81	3.9080	3.9080	1.0186	7.02	1.03	0.750			
0.3301	21126.52	3.9050	3.9051	1.0135	7.01	1.02	0.750			
0.3332	21323.15	3.9020	3.9021	1.0360	7.00	1.01	0.750			
0.3363	21526.36	3.8990	3.8990	1.0532	6.99	1.00	0.750			
0.3395	21729.13	3.8960	3.8961	1.0683	6.98	0.99	0.750			
0.3428	21940.38	3.8930	3.8931	1.0450	6.96	0.97	0.750			
0.3459	22137.30	3.8900	3.8900	1.0542	6.95	0.96	0.750			
0.3490	22336.14	3.8870	3.8872	1.0647	6.93	0.94	0.750			
0.3522	22543.62	3.8840	3.8843	1.0679	6.92	0.93	0.750			
0.3554	22746.46	3.8810	3.8813	1.0808	6.91	0.92	0.750			
0.3586	22952.80	3.8780	3.8783	1.1043	6.90	0.91	0.750			
0.3620	23167.12	3.8750	3.8753	1.1165	6.90	0.91	0.750			
0.3655	23389.56	3.8720	3.8723	1.1376	6.89	0.90	0.750			
0.3689	23607.22	3.8690	3.8692	1.1276	6.88	0.89	0.750			
0.3722	23821.40	3.8660	3.8660	1.1434	6.87	0.88	0.750			
0.3757	24043.21	3.8630	3.8631	1.1791	6.86	0.87	0.750			
0.3793	24276.16	3.8600	3.8598	1.1830	6.85	0.86	0.750			
0.3828	24498.99	3.8570	3.8571	1.2096	6.84	0.85	0.750			
0.3865	24735.29	3.8540	3.8543	1.2499	6.82	0.83	0.750			
0.3904	24983.65	3.8510	3.8506	1.2584	6.81	0.82	0.750			
0.3942	25226.73	3.8480	3.8480	1.2589	6.80	0.81	0.750			
0.3978	25460.64	3.8450	3.8453	1.3034	6.78	0.79	0.750			
0.4018	25715.08	3.8420	3.8423	1.3339	6.76	0.77	0.750			
0.4059	25976.03	3.8390	3.8394	1.3723	6.74	0.75	0.750	0.415	0.921	
0.4101	26243.40	3.8360	3.8363	1.4160	6.73	0.74	0.750			
0.4145	26526.87	3.8330	3.8332	1.4396	6.72	0.73	0.750			
0.4191	26825.30	3.8300	3.8300	1.4904	6.70	0.71	0.750			
0.4232	27086.90	3.8270	3.8272	1.4548	6.69	0.70	0.750			
0.4276	27365.63	3.8240	3.8240	1.4997	6.67	0.68	0.750			
0.4321	27651.56	3.8210	3.8205	1.4989	6.66	0.67	0.750			
0.4366	27942.48	3.8180	3.8178	1.5274	6.64	0.65	0.750			
0.4413	28244.94	3.8150	3.8148	1.5563	6.63	0.64	0.750			
0.4462	28555.29	3.8120	3.8124	1.6070	6.61	0.62	0.750			
0.4509	28858.07	3.8090	3.8093	1.6339	6.58	0.59	0.750			
0.4560	29181.17	3.8060	3.8054	1.6794	6.56	0.57	0.750			
0.4608	29492.85	3.8030	3.8029	1.6699	6.55	0.56	0.750			
0.4658	29809.44	3.8000	3.7999	1.7700	6.53	0.54	0.750			
0.4713	30160.72	3.7970	3.7973	1.7906	6.51	0.52	0.750			
0.4767	30506.29	3.7940	3.7941	1.8166	6.48	0.49	0.750			
0.4823	30865.21	3.7910	3.7914	1.8173	6.46	0.47	0.750			
0.4875	31200.64	3.7880	3.7881	1.7846	6.44	0.45	0.750			
0.4927	31531.05	3.7850	3.7854	1.7747	6.43	0.44	0.750			
0.4980	31871.26	3.7820	3.7824	1.7574	6.41	0.42	0.750			
0.5033	32211.24	3.7790	3.7792	1.7734	6.39	0.40	0.750			
0.5085	32541.33	3.7760	3.7770	1.8469	6.37	0.38	0.750			
0.5140	32898.72	3.7730	3.7723	1.9466	6.34	0.35	0.750			
0.5202	33290.23	3.7700	3.7702	1.9306	6.32	0.33	0.750			
0.5262	33676.63	3.7670	3.7674	1.9653	6.30	0.31	0.750			
0.5318	34032.42	3.7640	3.7637	1.8940	6.28	0.29	0.750			
0.5374	34391.34	3.7610	3.7610	1.8883	6.26	0.27	0.750			
0.5431	34760.28	3.7580	3.7574	1.9635	6.23	0.24	0.750			
0.5488	35122.42	3.7550	3.7548	1.9941	6.22	0.23	0.750			
0.5550	35518.62	3.7520	3.7517	2.0319	6.19	0.20	0.750			
0.5611	35913.12	3.7490	3.7490	2.1228	6.17	0.18	0.750			
0.5678	36337.60	3.7460	3.7462	2.1291	6.14	0.15	0.750			
0.5739	36728.71	3.7430	3.7433	2.1283	6.13	0.14	0.750			
0.5804	37148.43	3.7400	3.7396	2.1834	6.10	0.11	0.750			
0.5872	37583.07	3.7370	3.7371	2.2519	6.08	0.09	0.750			
0.5943	38034.35	3.7340	3.7335	2.3168	6.06	0.07	0.750			
0.6012	38477.97	3.7310	3.7308	2.3261	6.05	0.06	0.750			
0.6086	38947.81	3.7280	3.7280	2.4149	6.03	0.04	0.750			
0.6159	39420.62	3.7250	3.7247	2.3380	6.01	0.02	0.750			
0.6226	39847.85	3.7220	3.7219	2.3193	6.00	0.01	0.750			
0.6294	40282.95	3.7190	3.7185	2.1458	5.99	-0.00	0.750			
0.6356	40677.63	3.7160	3.7159	2.0632	5.98	-0.01	0.750			
0.6419	41083.51	3.7130	3.7126	1.9158	5.97	-0.02	0.750			
0.6473	41430.11	3.7100	3.7100	1.7000	5.97	-0.02	0.750			
0.6523	41747.09	3.7070	3.7075	1.5456	5.96	-0.03	0.750			
0.6567	42027.34	3.7040	3.7044	1.4068	5.96	-0.03	0.750			
0.6606	42275.40	3.7010	3.7014	1.2640	5.95	-0.04	0.750			
0.6642	42508.90	3.6980	3.6982	1.1489	5.95	-0.04	0.750			
0.6676	42726.20	3.6950	3.6951	1.0665	5.95	-0.04	0.750			
0.6704	42907.78	3.6920	3.6923	0.9940	5.95	-0.04	0.750			
0.6731	43079.27	3.6890	3.6895	0.9721	5.95	-0.04	0.750			
0.6759	43259.58	3.6860	3.6866	0.9923	5.95	-0.04	0.750			
0.6789	43448.93	3.6830	3.6831	0.9780	5.95	-0.04	0.750			
0.6820	43645.91	3.6800	3.6790	0.9769	5.95	-0.04	0.750			
0.6850	43842.46	3.6770	3.6780	0.9454	5.96	-0.03	0.750			
0.6880	44030.33	3.6740	3.6743	0.8808	5.96	-0.03	0.750			
0.6906	44199.82	3.6710	3.6707	0.8242	5.96	-0.03	0.750			
0.6929	44345.47	3.6680	3.6679	0.7596	5.96	-0.03	0.750			
0.6949	44472.43	3.6650	3.6650	0.6946	5.96	-0.03	0.750			
0.6969	44604.19	3.6620	3.6620	0.6633	5.96	-0.03	0.750			
0.6989	44729.19	3.6590	3.6589	0.6327	5.97	-0.02	0.750			
0.7007	44844.90	3.6560	3.6561	0.6000	5.97	-0.02	0.750			
0.7025	44958.14	3.6530	3.6531	0.5727	5.97	-0.02	0.750			
0.7041	45064.93	3.6500	3.6499	0.5426	5.97	-0.02	0.750			
0.7057	45167.07	3.6470	3.6470	0.5110	5.97	-0.02	0.750			
0.7072	45262.50	3.6440	3.6440	0.4788	5.98	-0.01	0.750			
0.7086	45351.90	3.6410	3.6410	0.4448	5.98	-0.01	0.750			
0.7099	45434.42	3.6380	3.6380	0.4092	5.98	-0.01	0.750			
0.7111	45508.65	3.6350	3.6350	0.3732	5.98	-0.01	0.750			
0.7121	45577.09	3.6320	3.6320	0.3400	5.98	-0.01	0.750			
0.7131	45639.24	3.6290	3.6290	0.3047	5.99	-0.00	0.750			
0.7140	45696.24	3.6260	3.6259	0.2661	5.99	-0.00	0.750			
0.7148	45744.45	3.6230	3.6229	0.2287	5.99	-0.00	0.750			
0.7154	45785.10	3.6200	3.6202	0.1878	5.99	-0.00	0.750			
0.7159	45818.80	3.6170	3.6171	0.1455	5.99	-0.00	0.750			
0.7163	45842.89	3.6140	3.6143	0.0982	5.99	0.00	0.750			
0.7165	45857.31	3.6110	3.6120	0.0493	5.99	0.00	0.750			
0.7166	45862.07	3.6080	3.6106	0.0016	5.99	0.00	0.750			
