Ah_balance (normalized)	Ah_balance (mAh)	Voltage - fit (V)	Voltage -  interpolate (V)	dQ/dV (1/V)	Temperature (°C)	Temperature - diff (°C)	Current (C)	R_DC 0ms (mOhm)	R_DC 50ms (mOhm)	R_DC 50 ms PEC (mOhm)
0.0963	6162.70	4.0060	4.0058	-0.0565	6.00	0.01	-0.750			
0.0965	6177.38	4.0030	4.0027	-0.0909	6.00	0.01	-0.750			
0.0968	6197.79	4.0000	3.9999	-0.1191	6.00	0.01	-0.750			
0.0972	6223.27	3.9970	3.9968	-0.1463	6.00	0.01	-0.750			
0.0977	6254.35	3.9940	3.9940	-0.1719	6.00	0.01	-0.750			
0.0983	6290.24	3.9910	3.9910	-0.1948	6.00	0.01	-0.750			
0.0989	6331.40	3.9880	3.9880	-0.2198	6.00	0.01	-0.750			
0.0996	6375.09	3.9850	3.9851	-0.2436	5.99	0.00	-0.750			
0.1004	6423.80	3.9820	3.9821	-0.2669	5.99	0.00	-0.750			
0.1012	6477.57	3.9790	3.9789	-0.2880	5.99	-0.00	-0.750			
0.1021	6534.88	3.9760	3.9761	-0.3113	5.98	-0.01	-0.750			
0.1031	6596.58	3.9730	3.9731	-0.3351	5.98	-0.01	-0.750			
0.1041	6663.10	3.9700	3.9699	-0.3602	5.98	-0.01	-0.750			
0.1052	6734.61	3.9670	3.9670	-0.3831	5.97	-0.02	-0.750			
0.1064	6810.55	3.9640	3.9640	-0.4052	5.97	-0.02	-0.750			
0.1077	6890.75	3.9610	3.9610	-0.4311	5.97	-0.02	-0.750			
0.1090	6976.76	3.9580	3.9580	-0.4529	5.96	-0.03	-0.750			
0.1104	7065.86	3.9550	3.9550	-0.4719	5.96	-0.03	-0.750			
0.1118	7158.33	3.9520	3.9520	-0.4921	5.95	-0.04	-0.750			
0.1134	7254.78	3.9490	3.9491	-0.5117	5.95	-0.04	-0.750			
0.1149	7355.30	3.9460	3.9460	-0.5314	5.95	-0.04	-0.750			
0.1166	7459.28	3.9430	3.9430	-0.5483	5.94	-0.05	-0.750			
0.1182	7565.84	3.9400	3.9400	-0.5633	5.94	-0.05	-0.750			
0.1199	7676.44	3.9370	3.9370	-0.5864	5.94	-0.05	-0.750			
0.1217	7791.80	3.9340	3.9339	-0.5986	5.94	-0.05	-0.750			
0.1236	7908.98	3.9310	3.9309	-0.6100	5.93	-0.06	-0.750			
0.1254	8026.92	3.9280	3.9282	-0.6243	5.93	-0.06	-0.750			
0.1273	8148.06	3.9250	3.9250	-0.6376	5.93	-0.06	-0.750			
0.1293	8272.49	3.9220	3.9219	-0.6468	5.93	-0.06	-0.750			
0.1312	8396.70	3.9190	3.9190	-0.6574	5.93	-0.06	-0.750			
0.1332	8525.02	3.9160	3.9160	-0.6683	5.93	-0.06	-0.750			
0.1352	8655.05	3.9130	3.9130	-0.6760	5.93	-0.06	-0.750			
0.1373	8786.30	3.9100	3.9099	-0.6811	5.93	-0.06	-0.750			
0.1393	8916.42	3.9070	3.9070	-0.6819	5.93	-0.06	-0.750			
0.1414	9047.00	3.9040	3.9040	-0.6877	5.93	-0.06	-0.750			
0.1434	9179.59	3.9010	3.9011	-0.6978	5.93	-0.06	-0.750			
0.1455	9313.97	3.8980	3.8980	-0.6998	5.93	-0.06	-0.750			
0.1477	9451.11	3.8950	3.8949	-0.7097	5.93	-0.06	-0.750			
0.1498	9588.64	3.8920	3.8921	-0.7111	5.93	-0.06	-0.750			
0.1520	9724.86	3.8890	3.8890	-0.7140	5.93	-0.06	-0.750			
0.1541	9862.59	3.8860	3.8860	-0.7180	5.94	-0.05	-0.750			
0.1563	10000.03	3.8830	3.8830	-0.7204	5.94	-0.05	-0.750			
0.1584	10137.05	3.8800	3.8800	-0.7209	5.94	-0.05	-0.750			
0.1606	10279.31	3.8770	3.8770	-0.7261	5.95	-0.04	-0.750			
0.1628	10417.47	3.8740	3.8741	-0.7273	5.95	-0.04	-0.750			
0.1650	10558.51	3.8710	3.8710	-0.7310	5.95	-0.04	-0.750			
0.1672	10697.75	3.8680	3.8681	-0.7302	5.96	-0.03	-0.750			
0.1693	10837.68	3.8650	3.8649	-0.7343	5.96	-0.03	-0.750			
0.1716	10979.83	3.8620	3.8621	-0.7330	5.96	-0.03	-0.750			
0.1738	11121.28	3.8590	3.8589	-0.7360	5.97	-0.02	-0.750			
0.1760	11262.03	3.8560	3.8562	-0.7397	5.97	-0.02	-0.750			
0.1782	11403.48	3.8530	3.8528	-0.7400	5.97	-0.02	-0.750			
0.1804	11546.17	3.8500	3.8500	-0.7482	5.98	-0.01	-0.750			
0.1827	11691.37	3.8470	3.8470	-0.7479	5.98	-0.01	-0.750			
0.1850	11838.06	3.8440	3.8439	-0.7495	5.99	-0.00	-0.750			
0.1872	11981.86	3.8410	3.8409	-0.7470	5.99	-0.00	-0.750			
0.1894	12123.46	3.8380	3.8380	-0.7425	5.99	0.00	-0.750			
0.1916	12265.53	3.8350	3.8349	-0.7378	6.00	0.01	-0.750			
0.1938	12404.63	3.8320	3.8320	-0.7442	6.00	0.01	-0.750			
0.1961	12547.30	3.8290	3.8291	-0.7429	6.00	0.01	-0.750			
0.1983	12694.10	3.8260	3.8259	-0.7540	6.01	0.02	-0.750			
0.2006	12839.30	3.8230	3.8232	-0.7511	6.01	0.02	-0.750			
0.2029	12982.66	3.8200	3.8201	-0.7501	6.01	0.02	-0.750			
0.2051	13126.57	3.8170	3.8170	-0.7555	6.02	0.03	-0.750			
0.2074	13271.67	3.8140	3.8139	-0.7544	6.02	0.03	-0.750			
0.2096	13417.38	3.8110	3.8109	-0.7493	6.02	0.03	-0.750			
0.2119	13561.49	3.8080	3.8080	-0.7514	6.03	0.04	-0.750			
0.2141	13705.22	3.8050	3.8050	-0.7541	6.03	0.04	-0.750			
0.2164	13850.00	3.8020	3.8019	-0.7554	6.04	0.05	-0.750			
0.2186	13992.65	3.7990	3.7989	-0.7506	6.04	0.05	-0.750			
0.2209	14137.14	3.7960	3.7961	-0.7506	6.04	0.05	-0.750			
0.2232	14283.59	3.7930	3.7930	-0.7596	6.05	0.06	-0.750			
0.2255	14430.09	3.7900	3.7899	-0.7617	6.05	0.06	-0.750			
0.2277	14575.02	3.7870	3.7870	-0.7585	6.06	0.07	-0.750			
0.2300	14720.04	3.7840	3.7840	-0.7651	6.07	0.08	-0.750			
0.2323	14869.94	3.7810	3.7810	-0.7648	6.08	0.09	-0.750			
0.2347	15017.70	3.7780	3.7780	-0.7624	6.09	0.10	-0.750			
0.2369	15163.05	3.7750	3.7750	-0.7675	6.10	0.11	-0.750			
0.2392	15309.07	3.7720	3.7720	-0.7659	6.10	0.11	-0.750			
0.2415	15454.65	3.7690	3.7689	-0.7704	6.11	0.12	-0.750			
0.2438	15603.14	3.7660	3.7660	-0.7737	6.11	0.12	-0.750			
0.2461	15753.01	3.7630	3.7631	-0.7741	6.12	0.13	-0.750			
0.2485	15904.82	3.7600	3.7600	-0.7751	6.13	0.14	-0.750			
0.2508	16053.31	3.7570	3.7572	-0.7762	6.13	0.14	-0.750			
0.2531	16200.62	3.7540	3.7541	-0.7739	6.13	0.14	-0.750			
0.2555	16348.87	3.7510	3.7509	-0.7831	6.14	0.15	-0.750			
0.2578	16499.67	3.7480	3.7479	-0.7851	6.14	0.15	-0.750			
0.2602	16652.15	3.7450	3.7450	-0.7876	6.15	0.16	-0.750			
0.2626	16803.51	3.7420	3.7424	-0.7907	6.15	0.16	-0.750			
0.2650	16956.93	3.7390	3.7389	-0.7985	6.15	0.16	-0.750			
0.2673	17108.53	3.7360	3.7359	-0.8016	6.16	0.17	-0.750			
0.2697	17260.89	3.7330	3.7330	-0.8028	6.17	0.18	-0.750			
0.2721	17415.47	3.7300	3.7301	-0.8073	6.17	0.18	-0.750			
0.2746	17574.95	3.7270	3.7269	-0.8219	6.18	0.19	-0.750			
0.2771	17733.41	3.7240	3.7240	-0.8261	6.18	0.19	-0.750			
0.2796	17892.39	3.7210	3.7210	-0.8278	6.18	0.19	-0.750			
0.2821	18051.98	3.7180	3.7179	-0.8296	6.19	0.20	-0.750			
0.2846	18211.62	3.7150	3.7151	-0.8345	6.19	0.20	-0.750			
0.2871	18372.97	3.7120	3.7120	-0.8393	6.19	0.20	-0.750			
0.2896	18533.27	3.7090	3.7088	-0.8437	6.20	0.21	-0.750			
0.2921	18695.07	3.7060	3.7060	-0.8549	6.20	0.21	-0.750			
0.2947	18859.72	3.7030	3.7029	-0.8609	6.21	0.22	-0.750			
0.2973	19025.44	3.7000	3.7000	-0.8717	6.22	0.23	-0.750			
0.2999	19196.32	3.6970	3.6969	-0.8829	6.23	0.24	-0.750			
0.3026	19364.47	3.6940	3.6940	-0.8961	6.23	0.24	-0.750			
0.3053	19539.05	3.6910	3.6910	-0.9044	6.24	0.25	-0.750			
0.3080	19713.55	3.6880	3.6880	-0.9064	6.24	0.25	-0.750			
0.3107	19887.70	3.6850	3.6851	-0.9110	6.25	0.26	-0.750			
0.3135	20066.01	3.6820	3.6821	-0.9212	6.25	0.26	-0.750			
0.3163	20241.25	3.6790	3.6790	-0.9273	6.26	0.27	-0.750			
0.3191	20419.30	3.6760	3.6760	-0.9355	6.26	0.27	-0.750			
0.3219	20598.68	3.6730	3.6730	-0.9378	6.26	0.27	-0.750			
0.3247	20781.29	3.6700	3.6701	-0.9539	6.27	0.28	-0.750			
0.3276	20964.00	3.6670	3.6670	-0.9689	6.27	0.28	-0.750			
0.3305	21151.79	3.6640	3.6638	-0.9741	6.27	0.28	-0.750			
0.3333	21331.69	3.6610	3.6611	-1.0233	6.28	0.29	-0.750			
0.3364	21529.25	3.6580	3.6580	-1.0562	6.28	0.29	-0.750			
0.3397	21741.55	3.6550	3.6546	-1.0867	6.28	0.29	-0.750			
0.3431	21958.57	3.6520	3.6519	-1.1071	6.28	0.29	-0.750			
0.3466	22180.48	3.6490	3.6492	-1.1061	6.29	0.30	-0.750			
0.3499	22395.42	3.6460	3.6461	-1.0933	6.29	0.30	-0.750			
0.3532	22603.06	3.6430	3.6429	-1.0872	6.29	0.30	-0.750			
0.3562	22794.97	3.6400	3.6400	-1.0564	6.30	0.31	-0.750			
0.3594	23000.15	3.6370	3.6369	-1.0677	6.30	0.31	-0.750			
0.3626	23205.13	3.6340	3.6342	-1.0824	6.31	0.32	-0.750			
0.3659	23416.44	3.6310	3.6310	-1.0975	6.31	0.32	-0.750			
0.3692	23630.74	3.6280	3.6278	-1.1030	6.32	0.33	-0.750			
0.3725	23842.89	3.6250	3.6250	-1.1085	6.33	0.34	-0.750			
0.3758	24053.40	3.6220	3.6222	-1.1195	6.33	0.34	-0.750			
0.3792	24271.31	3.6190	3.6189	-1.1295	6.33	0.34	-0.750			
0.3826	24489.39	3.6160	3.6159	-1.1378	6.33	0.34	-0.750			
0.3860	24706.46	3.6130	3.6130	-1.1465	6.33	0.34	-0.750			
0.3895	24929.46	3.6100	3.6100	-1.1714	6.33	0.34	-0.750			
0.3931	25156.61	3.6070	3.6069	-1.1859	6.34	0.35	-0.750			
0.3966	25385.20	3.6040	3.6040	-1.1948	6.34	0.35	-0.750			
0.4002	25613.49	3.6010	3.6012	-1.2139	6.35	0.36	-0.750			
0.4040	25853.41	3.5980	3.5979	-1.2221	6.35	0.36	-0.750			
0.4076	26089.56	3.5950	3.5949	-1.2285	6.35	0.36	-0.750			
0.4113	26323.26	3.5920	3.5921	-1.2375	6.35	0.36	-0.750	0.466	1.072	
0.4150	26561.66	3.5890	3.5887	-1.2479	6.35	0.36	-0.750			
0.4188	26801.22	3.5860	3.5860	-1.2569	6.36	0.37	-0.750			
0.4225	27043.11	3.5830	3.5829	-1.2627	6.37	0.38	-0.750			
0.4263	27286.14	3.5800	3.5802	-1.2923	6.37	0.38	-0.750			
0.4303	27540.25	3.5770	3.5770	-1.3092	6.37	0.38	-0.750			
0.4342	27791.42	3.5740	3.5738	-1.3151	6.37	0.38	-0.750			
0.4382	28044.74	3.5710	3.5713	-1.3356	6.37	0.38	-0.750			
0.4422	28303.84	3.5680	3.5680	-1.3477	6.37	0.38	-0.750			
0.4463	28565.96	3.5650	3.5649	-1.3482	6.37	0.38	-0.750			
0.4504	28826.35	3.5620	3.5622	-1.3495	6.37	0.38	-0.750			
0.4544	29084.09	3.5590	3.5590	-1.3569	6.37	0.38	-0.750			
0.4585	29342.43	3.5560	3.5561	-1.3727	6.38	0.39	-0.750			
0.4626	29603.28	3.5530	3.5529	-1.3932	6.38	0.39	-0.750			
0.4668	29873.99	3.5500	3.5499	-1.4154	6.38	0.39	-0.750			
0.4711	30149.74	3.5470	3.5470	-1.4396	6.39	0.40	-0.750			
0.4755	30434.33	3.5440	3.5444	-1.4707	6.39	0.40	-0.750			
0.4799	30715.93	3.5410	3.5409	-1.4831	6.40	0.41	-0.750			
0.4844	30998.80	3.5380	3.5380	-1.5019	6.40	0.41	-0.750			
0.4889	31292.25	3.5350	3.5351	-1.5016	6.41	0.42	-0.750			
0.4935	31585.34	3.5320	3.5318	-1.5222	6.41	0.42	-0.750			
0.4981	31879.73	3.5290	3.5290	-1.5239	6.41	0.42	-0.750			
0.5027	32174.55	3.5260	3.5258	-1.5131	6.41	0.42	-0.750			
0.5072	32463.73	3.5230	3.5230	-1.5291	6.42	0.43	-0.750			
0.5117	32749.13	3.5200	3.5201	-1.5241	6.43	0.44	-0.750			
0.5163	33041.64	3.5170	3.5168	-1.5494	6.44	0.45	-0.750			
0.5210	33345.86	3.5140	3.5135	-1.5922	6.44	0.45	-0.750			
0.5258	33651.54	3.5110	3.5110	-1.6001	6.45	0.46	-0.750			
0.5309	33979.49	3.5080	3.5082	-1.6258	6.45	0.46	-0.750			
0.5358	34289.39	3.5050	3.5049	-1.6032	6.45	0.46	-0.750			
0.5404	34585.91	3.5020	3.5018	-1.5650	6.45	0.46	-0.750			
0.5452	34892.76	3.4990	3.4989	-1.5601	6.46	0.47	-0.750			
0.5498	35185.74	3.4960	3.4960	-1.5524	6.47	0.48	-0.750			
0.5544	35482.94	3.4930	3.4931	-1.5563	6.48	0.49	-0.750			
0.5591	35780.91	3.4900	3.4899	-1.5672	6.49	0.50	-0.750			
0.5639	36087.57	3.4870	3.4871	-1.5762	6.50	0.51	-0.750			
0.5686	36387.28	3.4840	3.4842	-1.5656	6.51	0.52	-0.750			
0.5734	36695.46	3.4810	3.4809	-1.5771	6.52	0.53	-0.750			
0.5781	36997.17	3.4780	3.4778	-1.5569	6.53	0.54	-0.750			
0.5827	37295.34	3.4750	3.4748	-1.5366	6.54	0.55	-0.750			
0.5873	37588.30	3.4720	3.4722	-1.5227	6.55	0.56	-0.750			
0.5918	37873.13	3.4690	3.4689	-1.5077	6.56	0.57	-0.750			
0.5963	38162.52	3.4660	3.4659	-1.4926	6.58	0.59	-0.750			
0.6008	38449.69	3.4630	3.4632	-1.4917	6.59	0.60	-0.750			
0.6052	38733.67	3.4600	3.4598	-1.4790	6.60	0.61	-0.750			
0.6097	39021.05	3.4570	3.4572	-1.4713	6.61	0.62	-0.750			
0.6141	39303.87	3.4540	3.4540	-1.4570	6.62	0.63	-0.750			
0.6185	39584.14	3.4510	3.4509	-1.4425	6.64	0.65	-0.750			
0.6228	39856.11	3.4480	3.4480	-1.4270	6.66	0.67	-0.750			
0.6270	40129.03	3.4450	3.4450	-1.4027	6.67	0.68	-0.750			
0.6312	40396.84	3.4420	3.4420	-1.3780	6.69	0.70	-0.750			
0.6353	40656.88	3.4390	3.4390	-1.3629	6.70	0.71	-0.750			
0.6393	40914.77	3.4360	3.4360	-1.3371	6.71	0.72	-0.750			
0.6433	41173.89	3.4330	3.4330	-1.3212	6.73	0.74	-0.750			
0.6472	41423.46	3.4300	3.4299	-1.2951	6.74	0.75	-0.750			
0.6511	41669.98	3.4270	3.4272	-1.2726	6.75	0.76	-0.750			
0.6550	41918.05	3.4240	3.4240	-1.2501	6.76	0.77	-0.750			
0.6587	42153.77	3.4210	3.4209	-1.2176	6.78	0.79	-0.750			
0.6622	42382.01	3.4180	3.4180	-1.1841	6.79	0.80	-0.750			
0.6657	42606.72	3.4150	3.4150	-1.1667	6.80	0.81	-0.750			
0.6692	42828.49	3.4120	3.4119	-1.1361	6.82	0.83	-0.750			
0.6726	43043.65	3.4090	3.4089	-1.1066	6.84	0.85	-0.750			
0.6758	43252.63	3.4060	3.4063	-1.0836	6.85	0.86	-0.750			
0.6791	43461.67	3.4030	3.4030	-1.0608	6.87	0.88	-0.750			
0.6822	43661.20	3.4000	3.3999	-1.0306	6.88	0.89	-0.750			
0.6852	43854.60	3.3970	3.3970	-0.9996	6.90	0.91	-0.750			
0.6882	44045.56	3.3940	3.3942	-0.9791	6.91	0.92	-0.750			
0.6911	44231.09	3.3910	3.3910	-0.9573	6.93	0.94	-0.750			
0.6940	44413.07	3.3880	3.3879	-0.9297	6.94	0.95	-0.750			
0.6967	44588.38	3.3850	3.3850	-0.9032	6.95	0.96	-0.750			
0.6994	44759.71	3.3820	3.3820	-0.8827	6.96	0.97	-0.750			
0.7020	44926.82	3.3790	3.3789	-0.8549	6.98	0.99	-0.750			
0.7045	45087.35	3.3760	3.3759	-0.8344	6.99	1.00	-0.750			
0.7069	45244.46	3.3730	3.3730	-0.8125	7.00	1.01	-0.750			
0.7093	45397.70	3.3700	3.3700	-0.7895	7.01	1.02	-0.750			
0.7117	45550.19	3.3670	3.3669	-0.7722	7.02	1.03	-0.750			
0.7140	45696.68	3.3640	3.3641	-0.7458	7.04	1.05	-0.750			
0.7162	45836.60	3.3610	3.3610	-0.7268	7.05	1.06	-0.750			
0.7183	45972.91	3.3580	3.3580	-0.7134	7.06	1.07	-0.750			
0.7204	46105.04	3.3550	3.3550	-0.6932	7.08	1.09	-0.750			
0.7225	46237.54	3.3520	3.3519	-0.6880	7.09	1.10	-0.750			
0.7245	46368.96	3.3490	3.3491	-0.6847	7.10	1.11	-0.750			
0.7266	46500.04	3.3460	3.3458	-0.6802	7.12	1.13	-0.750			
