Ah_balance (normalized)	Ah_balance (mAh)	Voltage - fit (V)	Voltage -  interpolate (V)	dQ/dV (1/V)	Temperature (°C)	Temperature - diff (°C)	Current (C)	R_DC 0ms (mOhm)	R_DC 50ms (mOhm)	R_DC 50 ms PEC (mOhm)
0.1806	11557.56	4.0810	4.0810	0.7747	7.52	1.53	0.750			
0.1829	11706.89	4.0780	4.0779	0.7790	7.52	1.53	0.750			
0.1853	11856.74	4.0750	4.0750	0.7788	7.51	1.52	0.750			
0.1876	12006.02	4.0720	4.0720	0.7783	7.50	1.51	0.750			
0.1899	12154.89	4.0690	4.0690	0.7751	7.49	1.50	0.750			
0.1922	12303.38	4.0660	4.0660	0.7800	7.49	1.50	0.750			
0.1945	12450.86	4.0630	4.0631	0.7853	7.48	1.49	0.750			
0.1969	12602.57	4.0600	4.0598	0.7913	7.47	1.48	0.750			
0.1993	12755.74	4.0570	4.0571	0.7966	7.46	1.47	0.750			
0.2017	12911.54	4.0540	4.0540	0.7950	7.46	1.47	0.750			
0.2041	13064.79	4.0510	4.0511	0.8013	7.45	1.46	0.750			
0.2065	13218.62	4.0480	4.0480	0.8031	7.44	1.45	0.750			
0.2089	13369.34	4.0450	4.0450	0.8006	7.43	1.44	0.750			
0.2113	13523.12	4.0420	4.0420	0.8080	7.43	1.44	0.750			
0.2138	13681.17	4.0390	4.0390	0.8080	7.42	1.43	0.750			
0.2162	13836.19	4.0360	4.0360	0.8136	7.41	1.42	0.750			
0.2187	13993.73	4.0330	4.0331	0.8205	7.40	1.41	0.750			
0.2211	14148.82	4.0300	4.0301	0.8202	7.39	1.40	0.750			
0.2236	14307.54	4.0270	4.0271	0.8239	7.39	1.40	0.750			
0.2260	14466.40	4.0240	4.0240	0.8215	7.38	1.39	0.750			
0.2285	14623.70	4.0210	4.0211	0.8272	7.37	1.38	0.750			
0.2310	14784.00	4.0180	4.0180	0.8363	7.36	1.37	0.750			
0.2335	14942.99	4.0150	4.0150	0.8342	7.35	1.36	0.750			
0.2360	15103.63	4.0120	4.0120	0.8381	7.34	1.35	0.750			
0.2385	15266.60	4.0090	4.0089	0.8344	7.33	1.34	0.750			
0.2411	15428.23	4.0060	4.0061	0.8321	7.32	1.33	0.750			
0.2436	15588.76	4.0030	4.0030	0.8227	7.31	1.32	0.750			
0.2459	15737.72	4.0000	4.0003	0.8360	7.30	1.31	0.750			
0.2484	15899.82	3.9970	3.9976	0.8476	7.29	1.30	0.750			
0.2510	16064.07	3.9940	3.9950	0.8531	7.28	1.29	0.750			
0.2536	16229.61	3.9910	3.9915	0.8654	7.28	1.29	0.750			
0.2563	16402.60	3.9880	3.9881	0.8827	7.28	1.29	0.750			
0.2589	16572.42	3.9850	3.9848	0.8790	7.27	1.28	0.750			
0.2615	16737.87	3.9820	3.9820	0.8691	7.26	1.27	0.750			
0.2641	16904.87	3.9790	3.9791	0.8643	7.26	1.27	0.750			
0.2667	17071.76	3.9760	3.9760	0.8673	7.25	1.26	0.750			
0.2693	17237.93	3.9730	3.9731	0.8746	7.24	1.25	0.750			
0.2719	17403.25	3.9700	3.9698	0.8711	7.23	1.24	0.750			
0.2746	17572.14	3.9670	3.9669	0.8706	7.22	1.23	0.750			
0.2772	17738.95	3.9640	3.9641	0.8813	7.21	1.22	0.750			
0.2798	17908.55	3.9610	3.9611	0.8924	7.21	1.22	0.750			
0.2825	18082.19	3.9580	3.9580	0.9012	7.20	1.21	0.750			
0.2852	18254.11	3.9550	3.9548	0.9028	7.19	1.20	0.750			
0.2879	18428.69	3.9520	3.9521	0.9056	7.18	1.19	0.750			
0.2907	18604.93	3.9490	3.9490	0.9160	7.17	1.18	0.750			
0.2934	18780.56	3.9460	3.9460	0.9207	7.16	1.17	0.750			
0.2962	18955.76	3.9430	3.9430	0.9165	7.15	1.16	0.750			
0.2990	19133.35	3.9400	3.9401	0.9223	7.14	1.15	0.750			
0.3017	19311.04	3.9370	3.9370	0.9310	7.14	1.15	0.750			
0.3045	19485.13	3.9340	3.9342	0.9532	7.13	1.14	0.750			
0.3073	19666.76	3.9310	3.9310	0.9775	7.12	1.13	0.750			
0.3102	19854.73	3.9280	3.9280	1.0038	7.11	1.12	0.750			
0.3134	20054.90	3.9250	3.9247	1.0094	7.10	1.11	0.750			
0.3165	20254.86	3.9220	3.9223	1.0278	7.09	1.10	0.750			
0.3196	20455.09	3.9190	3.9192	1.0260	7.09	1.10	0.750			
0.3227	20654.18	3.9160	3.9159	1.0208	7.08	1.09	0.750			
0.3257	20845.61	3.9130	3.9130	1.0142	7.07	1.08	0.750			
0.3286	21033.24	3.9100	3.9100	1.0117	7.05	1.06	0.750			
0.3317	21230.41	3.9070	3.9070	1.0172	7.04	1.05	0.750			
0.3348	21428.49	3.9040	3.9039	1.0249	7.03	1.04	0.750			
0.3379	21622.64	3.9010	3.9011	1.0251	7.03	1.04	0.750			
0.3409	21819.07	3.8980	3.8980	1.0439	7.02	1.03	0.750			
0.3441	22019.68	3.8950	3.8950	1.0546	7.02	1.03	0.750			
0.3473	22225.55	3.8920	3.8917	1.0585	7.01	1.02	0.750			
0.3504	22427.70	3.8890	3.8891	1.0764	7.00	1.01	0.750			
0.3537	22636.89	3.8860	3.8861	1.0954	6.99	1.00	0.750			
0.3570	22848.74	3.8830	3.8830	1.1078	6.98	0.99	0.750			
0.3603	23061.39	3.8800	3.8799	1.1118	6.97	0.98	0.750			
0.3637	23274.23	3.8770	3.8772	1.1323	6.96	0.97	0.750			
0.3671	23496.48	3.8740	3.8739	1.1528	6.95	0.96	0.750			
0.3706	23720.59	3.8710	3.8710	1.1663	6.94	0.95	0.750			
0.3741	23944.46	3.8680	3.8680	1.1661	6.92	0.93	0.750			
0.3777	24170.51	3.8650	3.8651	1.1819	6.91	0.92	0.750			
0.3812	24397.93	3.8620	3.8620	1.2035	6.90	0.91	0.750			
0.3848	24629.98	3.8590	3.8587	1.2137	6.89	0.90	0.750			
0.3884	24859.93	3.8560	3.8560	1.2270	6.88	0.89	0.750			
0.3922	25098.68	3.8530	3.8531	1.2563	6.87	0.88	0.750			
0.3961	25348.08	3.8500	3.8499	1.2657	6.85	0.86	0.750			
0.3998	25588.17	3.8470	3.8470	1.3088	6.84	0.85	0.750			
0.4037	25836.83	3.8440	3.8441	1.3425	6.83	0.84	0.750			
0.4079	26102.65	3.8410	3.8410	1.3600	6.82	0.83	0.750			
0.4120	26369.11	3.8380	3.8383	1.4122	6.80	0.81	0.750	0.395	0.928	
0.4163	26644.21	3.8350	3.8353	1.4363	6.78	0.79	0.750			
0.4207	26926.49	3.8320	3.8319	1.4515	6.76	0.77	0.750			
0.4251	27204.68	3.8290	3.8292	1.4566	6.74	0.75	0.750			
0.4295	27484.91	3.8260	3.8261	1.4707	6.73	0.74	0.750			
0.4339	27770.72	3.8230	3.8229	1.5117	6.71	0.72	0.750			
0.4385	28061.26	3.8200	3.8199	1.5241	6.70	0.71	0.750			
0.4431	28361.10	3.8170	3.8170	1.5718	6.68	0.69	0.750			
0.4479	28667.07	3.8140	3.8138	1.6075	6.67	0.68	0.750			
0.4528	28981.94	3.8110	3.8109	1.6414	6.64	0.65	0.750			
0.4578	29300.97	3.8080	3.8081	1.6436	6.62	0.63	0.750			
0.4628	29618.88	3.8050	3.8051	1.6858	6.60	0.61	0.750			
0.4679	29944.75	3.8020	3.8018	1.7444	6.58	0.59	0.750			
0.4731	30279.05	3.7990	3.7989	1.7779	6.57	0.58	0.750			
0.4785	30626.59	3.7960	3.7959	1.8088	6.55	0.56	0.750			
0.4840	30978.53	3.7930	3.7930	1.8298	6.53	0.54	0.750			
0.4897	31338.41	3.7900	3.7901	1.8557	6.51	0.52	0.750			
0.4953	31696.00	3.7870	3.7872	1.8679	6.48	0.49	0.750			
0.5009	32056.47	3.7840	3.7844	1.9106	6.46	0.47	0.750			
0.5067	32430.43	3.7810	3.7812	1.9333	6.44	0.45	0.750			
0.5125	32798.05	3.7780	3.7780	1.9515	6.42	0.43	0.750			
0.5182	33166.52	3.7750	3.7749	1.9883	6.40	0.41	0.750			
0.5243	33557.44	3.7720	3.7719	1.9320	6.37	0.38	0.750			
0.5301	33924.55	3.7690	3.7692	1.9199	6.35	0.36	0.750			
0.5357	34284.19	3.7660	3.7666	1.9620	6.33	0.34	0.750			
0.5416	34662.66	3.7630	3.7635	2.0042	6.31	0.32	0.750			
0.5476	35048.26	3.7600	3.7597	2.1198	6.29	0.30	0.750			
0.5546	35496.63	3.7570	3.7568	2.1607	6.27	0.28	0.750			
0.5611	35913.21	3.7540	3.7541	2.1964	6.24	0.25	0.750			
0.5677	36335.82	3.7510	3.7510	2.2226	6.21	0.22	0.750			
0.5742	36748.08	3.7480	3.7479	2.2354	6.18	0.19	0.750			
0.5810	37184.03	3.7450	3.7451	2.3069	6.16	0.17	0.750			
0.5881	37637.62	3.7420	3.7421	2.3973	6.13	0.14	0.750			
0.5954	38107.74	3.7390	3.7389	2.4457	6.10	0.11	0.750			
0.6028	38581.86	3.7360	3.7360	2.4291	6.08	0.09	0.750			
0.6102	39049.77	3.7330	3.7330	2.4643	6.07	0.08	0.750			
0.6174	39512.78	3.7300	3.7300	2.4997	6.05	0.06	0.750			
0.6251	40005.62	3.7270	3.7271	2.5248	6.03	0.04	0.750			
0.6327	40494.26	3.7240	3.7241	2.4854	6.01	0.02	0.750			
0.6401	40964.66	3.7210	3.7210	2.4005	6.00	0.01	0.750			
0.6473	41426.22	3.7180	3.7179	2.2521	5.98	-0.01	0.750			
0.6539	41850.71	3.7150	3.7150	2.1091	5.97	-0.02	0.750			
0.6599	42231.27	3.7120	3.7116	1.8954	5.96	-0.03	0.750			
0.6652	42572.39	3.7090	3.7095	1.6993	5.95	-0.04	0.750			
0.6700	42881.74	3.7060	3.7061	1.5305	5.94	-0.05	0.750			
0.6743	43154.99	3.7030	3.7032	1.3717	5.93	-0.06	0.750			
0.6781	43397.87	3.7000	3.7001	1.2276	5.93	-0.06	0.750			
0.6815	43618.79	3.6970	3.6969	1.1336	5.93	-0.06	0.750			
0.6846	43816.22	3.6940	3.6937	1.0382	5.93	-0.06	0.750			
0.6875	44001.96	3.6910	3.6910	0.9756	5.93	-0.06	0.750			
0.6903	44182.17	3.6880	3.6880	0.9311	5.94	-0.05	0.750			
0.6931	44356.50	3.6850	3.6850	0.8987	5.94	-0.05	0.750			
0.6957	44526.45	3.6820	3.6821	0.8653	5.95	-0.04	0.750			
0.6982	44687.24	3.6790	3.6791	0.8337	5.95	-0.04	0.750			
0.7007	44845.03	3.6760	3.6760	0.8054	5.95	-0.04	0.750			
0.7031	44997.46	3.6730	3.6730	0.7711	5.95	-0.04	0.750			
0.7054	45142.64	3.6700	3.6700	0.7361	5.95	-0.04	0.750			
0.7075	45281.79	3.6670	3.6670	0.7020	5.95	-0.04	0.750			
0.7096	45412.72	3.6640	3.6639	0.6660	5.95	-0.04	0.750			
0.7115	45537.64	3.6610	3.6610	0.6300	5.96	-0.03	0.750			
0.7134	45654.65	3.6580	3.6580	0.5882	5.96	-0.03	0.750			
0.7151	45764.14	3.6550	3.6550	0.5517	5.97	-0.02	0.750			
0.7167	45866.72	3.6520	3.6521	0.5150	5.97	-0.02	0.750			
0.7182	45961.96	3.6490	3.6488	0.4749	5.98	-0.01	0.750			
0.7195	46048.30	3.6460	3.6460	0.4385	5.98	-0.01	0.750			
0.7208	46128.23	3.6430	3.6430	0.4024	5.99	-0.00	0.750			
0.7219	46202.56	3.6400	3.6399	0.3700	5.99	-0.00	0.750			
0.7230	46270.72	3.6370	3.6370	0.3369	5.99	0.00	0.750			
0.7239	46331.35	3.6340	3.6340	0.3022	6.00	0.01	0.750			
0.7248	46387.84	3.6310	3.6310	0.2674	6.00	0.01	0.750			
0.7256	46436.90	3.6280	3.6279	0.2346	6.00	0.01	0.750			
0.7262	46477.80	3.6250	3.6250	0.1952	6.00	0.01	0.750			
0.7268	46512.91	3.6220	3.6222	0.1583	6.00	0.01	0.750			
0.7272	46540.07	3.6190	3.6192	0.1178	6.01	0.02	0.750			
0.7275	46558.66	3.6160	3.6167	0.0758	6.01	0.02	0.750			
0.7276	46569.45	3.6130	3.6144	0.0240	6.01	0.02	0.750			
