Ah_balance (normalized)	Ah_balance (mAh)	Voltage - fit (V)	Voltage -  interpolate (V)	dQ/dV (1/V)	Temperature (°C)	Temperature - diff (°C)	Current (C)	R_DC 0ms (mOhm)	R_DC 50ms (mOhm)	R_DC 50 ms PEC (mOhm)
0.1800	11516.80	4.0810	4.0810	0.7622	7.22	1.24	0.750			
0.1822	11663.84	4.0780	4.0781	0.7694	7.21	1.23	0.750			
0.1846	11813.35	4.0750	4.0750	0.7745	7.21	1.23	0.750			
0.1869	11960.85	4.0720	4.0721	0.7785	7.21	1.23	0.750			
0.1892	12111.00	4.0690	4.0690	0.7746	7.20	1.22	0.750			
0.1915	12259.13	4.0660	4.0659	0.7799	7.20	1.22	0.750			
0.1939	12409.38	4.0630	4.0631	0.7838	7.19	1.21	0.750			
0.1962	12559.11	4.0600	4.0597	0.7840	7.19	1.21	0.750			
0.1986	12711.49	4.0570	4.0571	0.7913	7.19	1.21	0.750			
0.2010	12865.44	4.0540	4.0540	0.7930	7.18	1.20	0.750			
0.2034	13015.30	4.0510	4.0510	0.8012	7.18	1.20	0.750			
0.2058	13171.87	4.0480	4.0481	0.8113	7.17	1.19	0.750			
0.2082	13325.58	4.0450	4.0447	0.8088	7.17	1.19	0.750			
0.2107	13482.80	4.0420	4.0419	0.8124	7.17	1.19	0.750			
0.2132	13644.55	4.0390	4.0391	0.7997	7.16	1.18	0.750			
0.2155	13795.13	4.0360	4.0360	0.7968	7.16	1.18	0.750			
0.2179	13945.87	4.0330	4.0331	0.8027	7.16	1.18	0.750			
0.2203	14097.52	4.0300	4.0302	0.8005	7.15	1.17	0.750			
0.2226	14249.57	4.0270	4.0271	0.8039	7.15	1.17	0.750			
0.2251	14406.22	4.0240	4.0241	0.8068	7.14	1.16	0.750			
0.2275	14562.34	4.0210	4.0212	0.8175	7.13	1.15	0.750			
0.2300	14721.30	4.0180	4.0180	0.8242	7.12	1.14	0.750			
0.2325	14877.98	4.0150	4.0151	0.8263	7.11	1.13	0.750			
0.2350	15037.10	4.0120	4.0120	0.8307	7.11	1.13	0.750			
0.2375	15201.97	4.0090	4.0090	0.8295	7.10	1.12	0.750			
0.2400	15360.52	4.0060	4.0061	0.8310	7.10	1.12	0.750			
0.2425	15518.84	4.0030	4.0031	0.8361	7.10	1.12	0.750			
0.2450	15678.01	4.0000	4.0001	0.8372	7.09	1.11	0.750			
0.2475	15837.92	3.9970	3.9970	0.8410	7.09	1.11	0.750			
0.2500	16000.97	3.9940	3.9941	0.8396	7.08	1.10	0.750			
0.2526	16164.10	3.9910	3.9911	0.8512	7.08	1.10	0.750			
0.2551	16327.41	3.9880	3.9881	0.8621	7.08	1.10	0.750			
0.2577	16491.98	3.9850	3.9851	0.8656	7.07	1.09	0.750			
0.2603	16659.41	3.9820	3.9820	0.8690	7.07	1.09	0.750			
0.2629	16828.63	3.9790	3.9791	0.8709	7.06	1.08	0.750			
0.2656	16996.49	3.9760	3.9761	0.8809	7.05	1.07	0.750			
0.2683	17168.11	3.9730	3.9729	0.8891	7.05	1.07	0.750			
0.2709	17336.97	3.9700	3.9696	0.8816	7.04	1.06	0.750			
0.2736	17507.89	3.9670	3.9671	0.8786	7.03	1.05	0.750			
0.2762	17676.83	3.9640	3.9641	0.8833	7.03	1.05	0.750			
0.2788	17846.05	3.9610	3.9610	0.8904	7.02	1.04	0.750			
0.2815	18016.16	3.9580	3.9580	0.8950	7.02	1.04	0.750			
0.2842	18186.40	3.9550	3.9547	0.8945	7.01	1.03	0.750			
0.2869	18361.06	3.9520	3.9520	0.8933	7.01	1.03	0.750			
0.2896	18534.41	3.9490	3.9491	0.9068	7.00	1.02	0.750			
0.2923	18707.84	3.9460	3.9461	0.9102	7.00	1.02	0.750			
0.2950	18881.39	3.9430	3.9430	0.9095	6.99	1.01	0.750			
0.2978	19056.43	3.9400	3.9401	0.9157	6.99	1.01	0.750			
0.3005	19232.21	3.9370	3.9371	0.9241	6.98	1.00	0.750			
0.3033	19411.22	3.9340	3.9340	0.9374	6.98	1.00	0.750			
0.3061	19593.02	3.9310	3.9310	0.9519	6.97	0.99	0.750			
0.3090	19774.86	3.9280	3.9280	0.9592	6.97	0.99	0.750			
0.3119	19961.13	3.9250	3.9250	0.9717	6.96	0.98	0.750			
0.3148	20147.17	3.9220	3.9221	0.9750	6.95	0.97	0.750			
0.3177	20334.98	3.9190	3.9192	0.9847	6.94	0.96	0.750			
0.3207	20524.56	3.9160	3.9157	0.9895	6.93	0.95	0.750			
0.3237	20714.93	3.9130	3.9132	0.9972	6.93	0.95	0.750			
0.3267	20905.78	3.9100	3.9101	1.0082	6.92	0.94	0.750			
0.3297	21101.12	3.9070	3.9070	1.0231	6.92	0.94	0.750			
0.3329	21303.95	3.9040	3.9038	1.0361	6.91	0.93	0.750			
0.3359	21498.86	3.9010	3.9011	1.0202	6.90	0.92	0.750			
0.3390	21695.87	3.8980	3.8981	1.0369	6.89	0.91	0.750			
0.3421	21893.85	3.8950	3.8950	1.0537	6.88	0.90	0.750			
0.3452	22095.62	3.8920	3.8919	1.0633	6.87	0.89	0.750			
0.3485	22301.41	3.8890	3.8891	1.0683	6.86	0.88	0.750			
0.3517	22506.57	3.8860	3.8861	1.0879	6.85	0.87	0.750			
0.3550	22718.88	3.8830	3.8832	1.1068	6.84	0.86	0.750			
0.3584	22935.36	3.8800	3.8797	1.1201	6.83	0.85	0.750			
0.3617	23147.42	3.8770	3.8770	1.1333	6.82	0.84	0.750			
0.3651	23367.17	3.8740	3.8742	1.1505	6.81	0.83	0.750			
0.3687	23593.64	3.8710	3.8710	1.1701	6.80	0.82	0.750			
0.3722	23819.27	3.8680	3.8682	1.1698	6.79	0.81	0.750			
0.3757	24045.49	3.8650	3.8651	1.1837	6.78	0.80	0.750			
0.3793	24272.77	3.8620	3.8621	1.1977	6.78	0.80	0.750			
0.3829	24506.11	3.8590	3.8589	1.2015	6.77	0.79	0.750			
0.3864	24731.18	3.8560	3.8561	1.2193	6.76	0.78	0.750			
0.3901	24965.05	3.8530	3.8531	1.2526	6.75	0.77	0.750			
0.3939	25210.36	3.8500	3.8501	1.2786	6.74	0.76	0.750			
0.3978	25461.61	3.8470	3.8465	1.2779	6.73	0.75	0.750			
0.4016	25701.28	3.8440	3.8446	1.3204	6.71	0.73	0.750			
0.4056	25961.45	3.8410	3.8412	1.3476	6.70	0.72	0.750			
0.4097	26223.16	3.8380	3.8380	1.3874	6.69	0.71	0.750			
0.4139	26489.00	3.8350	3.8353	1.3797	6.67	0.69	0.750	0.399	0.910	
0.4183	26770.58	3.8320	3.8324	1.4344	6.65	0.67	0.750			
0.4227	27049.97	3.8290	3.8288	1.4702	6.64	0.66	0.750			
0.4270	27330.97	3.8260	3.8260	1.4570	6.63	0.65	0.750			
0.4314	27606.82	3.8230	3.8232	1.4831	6.62	0.64	0.750			
0.4359	27896.28	3.8200	3.8203	1.5334	6.60	0.62	0.750			
0.4406	28195.27	3.8170	3.8167	1.5719	6.59	0.61	0.750			
0.4454	28502.87	3.8140	3.8139	1.5789	6.57	0.59	0.750			
0.4501	28808.12	3.8110	3.8111	1.6149	6.56	0.58	0.750			
0.4551	29128.64	3.8080	3.8081	1.6443	6.54	0.56	0.750			
0.4599	29436.51	3.8050	3.8049	1.6723	6.53	0.55	0.750			
0.4649	29756.68	3.8020	3.8018	1.7141	6.51	0.53	0.750			
0.4702	30092.09	3.7990	3.7990	1.7582	6.49	0.51	0.750			
0.4756	30441.30	3.7960	3.7962	1.8110	6.48	0.50	0.750			
0.4813	30801.81	3.7930	3.7931	1.8399	6.46	0.48	0.750			
0.4867	31151.07	3.7900	3.7900	1.8490	6.44	0.46	0.750			
0.4922	31500.77	3.7870	3.7872	1.8704	6.42	0.44	0.750			
0.4977	31853.99	3.7840	3.7839	1.9171	6.41	0.43	0.750			
0.5035	32226.44	3.7810	3.7810	1.9676	6.39	0.41	0.750			
0.5096	32611.48	3.7780	3.7778	1.9602	6.37	0.39	0.750			
0.5156	32996.92	3.7750	3.7749	1.9774	6.35	0.37	0.750			
0.5214	33368.98	3.7720	3.7716	2.0093	6.33	0.35	0.750			
0.5273	33745.20	3.7690	3.7691	2.0193	6.31	0.33	0.750			
0.5335	34145.02	3.7660	3.7659	2.0729	6.29	0.31	0.750			
0.5399	34555.16	3.7630	3.7626	2.0856	6.27	0.29	0.750			
0.5462	34959.68	3.7600	3.7599	2.0896	6.25	0.27	0.750			
0.5525	35358.87	3.7570	3.7567	2.0920	6.24	0.26	0.750			
0.5587	35757.79	3.7540	3.7537	2.1182	6.23	0.25	0.750			
0.5652	36175.84	3.7510	3.7514	2.1554	6.21	0.23	0.750			
0.5718	36593.06	3.7480	3.7480	2.1929	6.19	0.21	0.750			
0.5783	37013.67	3.7450	3.7450	2.2707	6.17	0.19	0.750			
0.5854	37468.20	3.7420	3.7419	2.3732	6.14	0.16	0.750			
0.5926	37927.15	3.7390	3.7391	2.4317	6.12	0.14	0.750			
0.6000	38397.56	3.7360	3.7361	2.4753	6.10	0.12	0.750			
0.6074	38875.46	3.7330	3.7330	2.5307	6.07	0.09	0.750			
0.6152	39369.81	3.7300	3.7301	2.5366	6.06	0.08	0.750			
0.6229	39863.67	3.7270	3.7271	2.5702	6.05	0.07	0.750			
0.6306	40355.50	3.7240	3.7239	2.5629	6.03	0.05	0.750			
0.6384	40855.71	3.7210	3.7211	2.5605	6.01	0.03	0.750			
0.6462	41354.55	3.7180	3.7180	2.4702	6.00	0.02	0.750			
0.6533	41812.69	3.7150	3.7156	2.3123	5.99	0.01	0.750			
0.6601	42244.58	3.7120	3.7122	2.1632	5.99	0.01	0.750			
0.6664	42647.53	3.7090	3.7091	1.9546	5.98	-0.00	0.750			
0.6719	42999.29	3.7060	3.7060	1.7244	5.97	-0.01	0.750			
0.6765	43297.65	3.7030	3.7032	1.5233	5.96	-0.02	0.750			
0.6808	43568.42	3.7000	3.7000	1.3553	5.95	-0.03	0.750			
0.6844	43801.58	3.6970	3.6968	1.2035	5.95	-0.03	0.750			
0.6876	44006.77	3.6940	3.6941	1.0820	5.96	-0.02	0.750			
0.6907	44204.36	3.6910	3.6911	1.0174	5.96	-0.02	0.750			
0.6936	44390.14	3.6880	3.6880	0.9587	5.97	-0.01	0.750			
0.6963	44564.34	3.6850	3.6848	0.9140	5.97	-0.01	0.750			
0.6990	44734.29	3.6820	3.6821	0.8758	5.97	-0.01	0.750			
0.7016	44899.52	3.6790	3.6790	0.8415	5.97	-0.01	0.750			
0.7040	45059.06	3.6760	3.6760	0.8129	5.97	-0.01	0.750			
0.7064	45211.85	3.6730	3.6732	0.7775	5.97	-0.01	0.750			
0.7087	45359.55	3.6700	3.6697	0.7402	5.97	-0.01	0.750			
0.7109	45498.99	3.6670	3.6671	0.7023	5.97	-0.01	0.750			
0.7130	45630.29	3.6640	3.6641	0.6567	5.97	-0.01	0.750			
0.7149	45754.83	3.6610	3.6609	0.6157	5.97	-0.01	0.750			
0.7167	45866.33	3.6580	3.6580	0.5686	5.98	-0.00	0.750			
0.7183	45970.45	3.6550	3.6550	0.5284	5.98	-0.00	0.750			
0.7198	46067.84	3.6520	3.6519	0.4887	5.98	-0.00	0.750			
0.7212	46157.94	3.6490	3.6490	0.4517	5.98	-0.00	0.750			
0.7225	46240.72	3.6460	3.6461	0.4143	5.98	0.00	0.750			
0.7237	46317.24	3.6430	3.6430	0.3799	5.98	0.00	0.750			
0.7248	46386.57	3.6400	3.6400	0.3429	5.98	0.00	0.750			
0.7258	46448.27	3.6370	3.6370	0.3057	5.98	0.00	0.750			
0.7266	46503.68	3.6340	3.6341	0.2710	5.98	0.00	0.750			
0.7274	46553.62	3.6310	3.6310	0.2356	5.98	0.00	0.750			
0.7280	46595.09	3.6280	3.6279	0.1972	5.99	0.01	0.750			
0.7286	46629.69	3.6250	3.6250	0.1598	5.99	0.01	0.750			
0.7290	46656.51	3.6220	3.6222	0.1211	5.99	0.01	0.750			
0.7293	46676.77	3.6190	3.6195	0.0825	5.99	0.01	0.750			
0.7295	46690.28	3.6160	3.6162	0.0393	5.99	0.01	0.750			
0.7296	46693.60	3.6130	3.6137	-0.0048	5.99	0.01	0.750			
