Ah_balance (normalized)	Ah_balance (mAh)	Voltage - fit (V)	Voltage -  interpolate (V)	dQ/dV (1/V)	Temperature (°C)	Temperature - diff (°C)	Current (C)	R_DC 0ms (mOhm)	R_DC 50ms (mOhm)	R_DC 50 ms PEC (mOhm)
0.0939	6010.57	4.0090	4.0085	-0.0590	5.97	0.01	-0.750			
0.0941	6025.07	4.0060	4.0059	-0.0895	5.97	0.01	-0.750			
0.0945	6045.23	4.0030	4.0030	-0.1175	5.97	0.01	-0.750			
0.0948	6070.40	4.0000	4.0000	-0.1446	5.97	0.01	-0.750			
0.0953	6100.92	3.9970	3.9970	-0.1706	5.97	0.01	-0.750			
0.0959	6136.57	3.9940	3.9940	-0.1927	5.97	0.01	-0.750			
0.0965	6177.15	3.9910	3.9910	-0.2172	5.97	0.01	-0.750			
0.0972	6220.68	3.9880	3.9881	-0.2397	5.97	0.01	-0.750			
0.0980	6268.81	3.9850	3.9851	-0.2625	5.96	0.00	-0.750			
0.0988	6321.19	3.9820	3.9819	-0.2849	5.96	0.00	-0.750			
0.0997	6377.76	3.9790	3.9790	-0.3075	5.96	0.00	-0.750			
0.1006	6439.33	3.9760	3.9760	-0.3337	5.96	0.00	-0.750			
0.1017	6506.12	3.9730	3.9729	-0.3551	5.96	0.00	-0.750			
0.1028	6577.22	3.9700	3.9699	-0.3779	5.96	0.00	-0.750			
0.1039	6651.89	3.9670	3.9674	-0.3991	5.96	0.00	-0.750			
0.1052	6730.18	3.9640	3.9640	-0.4220	5.96	-0.00	-0.750			
0.1065	6813.18	3.9610	3.9610	-0.4453	5.96	-0.00	-0.750			
0.1078	6899.72	3.9580	3.9580	-0.4678	5.96	-0.00	-0.750			
0.1093	6992.81	3.9550	3.9550	-0.4948	5.96	-0.00	-0.750			
0.1108	7090.58	3.9520	3.9521	-0.5197	5.95	-0.01	-0.750			
0.1124	7193.66	3.9490	3.9489	-0.5422	5.95	-0.01	-0.750			
0.1141	7301.19	3.9460	3.9460	-0.5597	5.95	-0.01	-0.750			
0.1158	7410.42	3.9430	3.9430	-0.5761	5.95	-0.01	-0.750			
0.1176	7523.38	3.9400	3.9399	-0.5894	5.95	-0.01	-0.750			
0.1193	7637.26	3.9370	3.9370	-0.6033	5.95	-0.01	-0.750			
0.1211	7753.36	3.9340	3.9339	-0.6186	5.94	-0.02	-0.750			
0.1230	7872.90	3.9310	3.9311	-0.6326	5.94	-0.02	-0.750			
0.1250	7998.23	3.9280	3.9278	-0.6466	5.94	-0.02	-0.750			
0.1270	8124.98	3.9250	3.9250	-0.6546	5.93	-0.03	-0.750			
0.1289	8251.30	3.9220	3.9221	-0.6668	5.93	-0.03	-0.750			
0.1309	8380.64	3.9190	3.9190	-0.6756	5.93	-0.03	-0.750			
0.1330	8510.35	3.9160	3.9160	-0.6869	5.94	-0.02	-0.750			
0.1350	8642.17	3.9130	3.9130	-0.6907	5.94	-0.02	-0.750			
0.1372	8777.82	3.9100	3.9100	-0.6984	5.94	-0.02	-0.750			
0.1393	8912.66	3.9070	3.9070	-0.7042	5.95	-0.01	-0.750			
0.1414	9048.28	3.9040	3.9043	-0.7095	5.95	-0.01	-0.750			
0.1435	9182.33	3.9010	3.9010	-0.7122	5.95	-0.01	-0.750			
0.1456	9318.51	3.8980	3.8980	-0.7202	5.95	-0.01	-0.750			
0.1478	9457.47	3.8950	3.8949	-0.7276	5.95	-0.01	-0.750			
0.1500	9601.51	3.8920	3.8920	-0.7347	5.95	-0.01	-0.750			
0.1522	9742.77	3.8890	3.8890	-0.7367	5.95	-0.01	-0.750			
0.1544	9884.40	3.8860	3.8861	-0.7406	5.95	-0.01	-0.750			
0.1567	10027.54	3.8830	3.8830	-0.7412	5.96	-0.00	-0.750			
0.1589	10167.67	3.8800	3.8799	-0.7426	5.97	0.01	-0.750			
0.1611	10311.00	3.8770	3.8770	-0.7477	5.97	0.01	-0.750			
0.1634	10455.81	3.8740	3.8740	-0.7537	5.98	0.02	-0.750			
0.1656	10600.79	3.8710	3.8711	-0.7585	5.99	0.03	-0.750			
0.1679	10747.42	3.8680	3.8679	-0.7563	5.99	0.03	-0.750			
0.1702	10891.54	3.8650	3.8650	-0.7623	5.99	0.03	-0.750			
0.1725	11038.71	3.8620	3.8620	-0.7635	5.99	0.03	-0.750			
0.1748	11184.61	3.8590	3.8589	-0.7612	5.99	0.03	-0.750			
0.1771	11331.46	3.8560	3.8560	-0.7644	5.99	0.03	-0.750			
0.1794	11478.75	3.8530	3.8532	-0.7645	5.99	0.03	-0.750			
0.1817	11626.01	3.8500	3.8499	-0.7666	6.00	0.04	-0.750			
0.1840	11774.41	3.8470	3.8470	-0.7714	6.01	0.05	-0.750			
0.1863	11920.21	3.8440	3.8441	-0.7725	6.01	0.05	-0.750			
0.1886	12070.27	3.8410	3.8409	-0.7766	6.02	0.06	-0.750			
0.1909	12219.75	3.8380	3.8380	-0.7767	6.03	0.07	-0.750			
0.1933	12368.60	3.8350	3.8349	-0.7754	6.04	0.08	-0.750			
0.1956	12517.34	3.8320	3.8321	-0.7777	6.04	0.08	-0.750			
0.1979	12666.63	3.8290	3.8290	-0.7771	6.05	0.09	-0.750			
0.2002	12815.53	3.8260	3.8259	-0.7769	6.06	0.10	-0.750			
0.2026	12964.14	3.8230	3.8230	-0.7760	6.07	0.11	-0.750			
0.2049	13113.71	3.8200	3.8201	-0.7814	6.07	0.11	-0.750			
0.2072	13263.46	3.8170	3.8170	-0.7872	6.08	0.12	-0.750			
0.2096	13416.44	3.8140	3.8138	-0.7854	6.08	0.12	-0.750			
0.2120	13566.94	3.8110	3.8111	-0.7828	6.08	0.12	-0.750			
0.2143	13718.18	3.8080	3.8081	-0.7820	6.09	0.13	-0.750			
0.2167	13868.20	3.8050	3.8053	-0.7837	6.09	0.13	-0.750			
0.2190	14018.53	3.8020	3.8019	-0.7804	6.10	0.14	-0.750			
0.2213	14164.85	3.7990	3.7991	-0.7819	6.11	0.15	-0.750			
0.2237	14315.15	3.7960	3.7960	-0.7880	6.11	0.15	-0.750			
0.2261	14470.09	3.7930	3.7930	-0.7927	6.12	0.16	-0.750			
0.2285	14621.66	3.7900	3.7900	-0.7915	6.13	0.17	-0.750			
0.2308	14773.71	3.7870	3.7871	-0.7931	6.14	0.18	-0.750			
0.2332	14925.41	3.7840	3.7839	-0.7940	6.14	0.18	-0.750			
0.2356	15078.36	3.7810	3.7810	-0.7907	6.15	0.19	-0.750			
0.2379	15228.78	3.7780	3.7780	-0.7870	6.16	0.20	-0.750			
0.2403	15379.03	3.7750	3.7751	-0.7930	6.17	0.21	-0.750			
0.2427	15531.93	3.7720	3.7718	-0.7989	6.17	0.21	-0.750			
0.2450	15682.93	3.7690	3.7690	-0.8028	6.18	0.22	-0.750			
0.2475	15840.41	3.7660	3.7659	-0.8026	6.19	0.23	-0.750			
0.2499	15996.22	3.7630	3.7631	-0.8048	6.20	0.24	-0.750			
0.2524	16152.67	3.7600	3.7597	-0.8044	6.21	0.25	-0.750			
0.2548	16306.44	3.7570	3.7571	-0.7986	6.21	0.25	-0.750			
0.2572	16457.71	3.7540	3.7539	-0.7947	6.22	0.26	-0.750			
0.2595	16607.94	3.7510	3.7511	-0.7947	6.22	0.26	-0.750			
0.2618	16757.73	3.7480	3.7480	-0.7923	6.22	0.26	-0.750			
0.2643	16914.29	3.7450	3.7450	-0.8064	6.23	0.27	-0.750			
0.2667	17069.76	3.7420	3.7419	-0.8080	6.23	0.27	-0.750			
0.2692	17226.17	3.7390	3.7390	-0.8099	6.24	0.28	-0.750			
0.2716	17383.15	3.7360	3.7360	-0.8186	6.25	0.29	-0.750			
0.2741	17540.68	3.7330	3.7329	-0.8199	6.25	0.29	-0.750			
0.2765	17698.55	3.7300	3.7300	-0.8173	6.26	0.30	-0.750			
0.2790	17854.79	3.7270	3.7273	-0.8226	6.27	0.31	-0.750			
0.2814	18007.29	3.7240	3.7241	-0.8531	6.28	0.32	-0.750			
0.2839	18171.50	3.7210	3.7210	-0.8723	6.29	0.33	-0.750			
0.2866	18339.93	3.7180	3.7178	-0.8960	6.29	0.33	-0.750			
0.2894	18520.93	3.7150	3.7145	-0.9120	6.30	0.34	-0.750			
0.2922	18699.92	3.7120	3.7126	-0.9173	6.31	0.35	-0.750			
0.2951	18884.25	3.7090	3.7090	-0.9168	6.32	0.36	-0.750			
0.2978	19057.02	3.7060	3.7060	-0.9000	6.32	0.36	-0.750			
0.3004	19224.60	3.7030	3.7029	-0.8930	6.32	0.36	-0.750			
0.3030	19389.24	3.7000	3.7000	-0.8727	6.33	0.37	-0.750			
0.3056	19556.56	3.6970	3.6971	-0.8716	6.34	0.38	-0.750			
0.3082	19723.73	3.6940	3.6941	-0.8831	6.34	0.38	-0.750			
0.3108	19893.05	3.6910	3.6909	-0.8918	6.35	0.39	-0.750			
0.3135	20065.71	3.6880	3.6879	-0.9002	6.36	0.40	-0.750			
0.3162	20237.93	3.6850	3.6853	-0.9128	6.37	0.41	-0.750			
0.3190	20413.18	3.6820	3.6820	-0.9309	6.37	0.41	-0.750			
0.3218	20596.20	3.6790	3.6791	-0.9468	6.38	0.42	-0.750			
0.3247	20779.42	3.6760	3.6759	-0.9544	6.38	0.42	-0.750			
0.3276	20964.74	3.6730	3.6729	-0.9713	6.39	0.43	-0.750			
0.3305	21152.26	3.6700	3.6700	-0.9772	6.40	0.44	-0.750			
0.3334	21340.23	3.6670	3.6669	-0.9887	6.40	0.44	-0.750			
0.3364	21530.53	3.6640	3.6640	-0.9968	6.41	0.45	-0.750			
0.3394	21721.95	3.6610	3.6610	-1.0049	6.42	0.46	-0.750			
0.3425	21917.69	3.6580	3.6580	-1.0216	6.43	0.47	-0.750			
0.3456	22116.21	3.6550	3.6550	-1.0322	6.43	0.47	-0.750			
0.3487	22313.67	3.6520	3.6520	-1.0417	6.43	0.47	-0.750			
0.3518	22514.47	3.6490	3.6490	-1.0516	6.43	0.47	-0.750			
0.3550	22717.08	3.6460	3.6461	-1.0785	6.43	0.47	-0.750			
0.3582	22927.42	3.6430	3.6428	-1.0844	6.44	0.48	-0.750			
0.3615	23137.45	3.6400	3.6400	-1.0930	6.44	0.48	-0.750			
0.3648	23348.54	3.6370	3.6369	-1.1054	6.45	0.49	-0.750			
0.3682	23562.14	3.6340	3.6339	-1.1221	6.45	0.49	-0.750			
0.3715	23777.60	3.6310	3.6309	-1.1326	6.46	0.50	-0.750			
0.3749	23996.40	3.6280	3.6280	-1.1425	6.46	0.50	-0.750			
0.3784	24215.09	3.6250	3.6252	-1.1525	6.47	0.51	-0.750			
0.3819	24442.80	3.6220	3.6219	-1.1764	6.47	0.51	-0.750			
0.3855	24670.32	3.6190	3.6189	-1.1829	6.48	0.52	-0.750			
0.3890	24897.02	3.6160	3.6160	-1.1912	6.49	0.53	-0.750			
0.3926	25124.80	3.6130	3.6131	-1.2057	6.49	0.53	-0.750			
0.3962	25359.22	3.6100	3.6099	-1.2257	6.49	0.53	-0.750			
0.3999	25596.76	3.6070	3.6069	-1.2424	6.49	0.53	-0.750			
0.4037	25836.15	3.6040	3.6040	-1.2528	6.49	0.53	-0.750			
0.4075	26078.73	3.6010	3.6009	-1.2720	6.49	0.53	-0.750			
0.4113	26325.83	3.5980	3.5980	-1.2880	6.50	0.54	-0.750	0.470	1.103	
0.4152	26572.32	3.5950	3.5950	-1.3054	6.50	0.54	-0.750			
0.4192	26826.22	3.5920	3.5919	-1.3192	6.50	0.54	-0.750			
0.4231	27078.39	3.5890	3.5889	-1.3291	6.51	0.55	-0.750			
0.4271	27335.24	3.5860	3.5861	-1.3583	6.51	0.55	-0.750			
0.4312	27599.38	3.5830	3.5830	-1.3680	6.51	0.55	-0.750			
0.4354	27865.05	3.5800	3.5799	-1.3797	6.51	0.55	-0.750			
0.4395	28131.10	3.5770	3.5770	-1.4016	6.51	0.55	-0.750			
0.4437	28399.77	3.5740	3.5737	-1.4111	6.51	0.55	-0.750			
0.4480	28675.20	3.5710	3.5709	-1.4262	6.52	0.56	-0.750			
0.4523	28949.06	3.5680	3.5680	-1.4457	6.53	0.57	-0.750			
0.4567	29228.06	3.5650	3.5649	-1.4592	6.53	0.57	-0.750			
0.4611	29509.76	3.5620	3.5619	-1.4758	6.54	0.58	-0.750			
0.4656	29796.22	3.5590	3.5591	-1.5018	6.54	0.58	-0.750			
0.4701	30087.05	3.5560	3.5559	-1.4996	6.54	0.58	-0.750			
0.4747	30380.99	3.5530	3.5528	-1.5263	6.55	0.59	-0.750			
0.4793	30673.53	3.5500	3.5503	-1.5390	6.55	0.59	-0.750			
0.4839	30967.17	3.5470	3.5470	-1.5446	6.56	0.60	-0.750			
0.4886	31269.11	3.5440	3.5439	-1.5580	6.57	0.61	-0.750			
0.4932	31563.83	3.5410	3.5410	-1.5781	6.57	0.61	-0.750			
0.4980	31874.38	3.5380	3.5381	-1.6063	6.57	0.61	-0.750			
0.5029	32186.33	3.5350	3.5348	-1.6263	6.57	0.61	-0.750			
0.5078	32500.26	3.5320	3.5320	-1.6314	6.58	0.62	-0.750			
0.5127	32815.64	3.5290	3.5288	-1.6516	6.58	0.62	-0.750			
0.5177	33133.93	3.5260	3.5260	-1.6526	6.59	0.63	-0.750			
0.5227	33450.24	3.5230	3.5231	-1.6451	6.60	0.64	-0.750			
0.5276	33768.87	3.5200	3.5202	-1.6530	6.60	0.64	-0.750			
0.5326	34085.56	3.5170	3.5169	-1.6647	6.61	0.65	-0.750			
0.5376	34407.44	3.5140	3.5139	-1.6762	6.61	0.65	-0.750			
0.5427	34734.01	3.5110	3.5109	-1.6808	6.62	0.66	-0.750			
0.5478	35057.07	3.5080	3.5082	-1.6800	6.63	0.67	-0.750			
0.5528	35380.10	3.5050	3.5051	-1.6730	6.63	0.67	-0.750			
0.5578	35699.62	3.5020	3.5019	-1.6548	6.64	0.68	-0.750			
0.5628	36020.37	3.4990	3.4989	-1.6567	6.64	0.68	-0.750			
0.5677	36332.84	3.4960	3.4960	-1.6589	6.65	0.69	-0.750			
0.5727	36650.85	3.4930	3.4929	-1.6530	6.66	0.70	-0.750			
0.5777	36970.70	3.4900	3.4901	-1.6467	6.67	0.71	-0.750			
0.5827	37290.12	3.4870	3.4869	-1.6357	6.68	0.72	-0.750			
0.5875	37603.03	3.4840	3.4838	-1.6354	6.68	0.72	-0.750			
0.5924	37915.51	3.4810	3.4810	-1.6174	6.69	0.73	-0.750			
0.5973	38225.05	3.4780	3.4781	-1.5954	6.70	0.74	-0.750			
0.6020	38529.43	3.4750	3.4751	-1.5746	6.71	0.75	-0.750			
0.6067	38830.67	3.4720	3.4718	-1.5623	6.72	0.76	-0.750			
0.6115	39134.98	3.4690	3.4690	-1.5506	6.73	0.77	-0.750			
0.6161	39430.04	3.4660	3.4660	-1.5365	6.75	0.79	-0.750			
0.6207	39722.21	3.4630	3.4630	-1.5163	6.76	0.80	-0.750			
0.6252	40010.28	3.4600	3.4599	-1.4922	6.76	0.80	-0.750			
0.6297	40298.28	3.4570	3.4572	-1.4880	6.77	0.81	-0.750			
0.6341	40581.09	3.4540	3.4539	-1.4670	6.78	0.82	-0.750			
0.6384	40860.47	3.4510	3.4509	-1.4454	6.79	0.83	-0.750			
0.6428	41140.70	3.4480	3.4481	-1.4253	6.80	0.84	-0.750			
0.6471	41414.72	3.4450	3.4450	-1.4021	6.81	0.85	-0.750			
0.6512	41678.85	3.4420	3.4419	-1.3744	6.83	0.87	-0.750			
0.6553	41936.18	3.4390	3.4391	-1.3385	6.84	0.88	-0.750			
0.6593	42195.60	3.4360	3.4359	-1.3166	6.85	0.89	-0.750			
0.6632	42444.59	3.4330	3.4329	-1.2879	6.86	0.90	-0.750			
0.6670	42686.92	3.4300	3.4302	-1.2627	6.87	0.91	-0.750			
0.6708	42929.68	3.4270	3.4270	-1.2453	6.88	0.92	-0.750			
0.6745	43167.17	3.4240	3.4239	-1.2174	6.90	0.94	-0.750			
0.6781	43397.25	3.4210	3.4209	-1.1920	6.91	0.95	-0.750			
0.6816	43625.19	3.4180	3.4180	-1.1696	6.92	0.96	-0.750			
0.6851	43849.01	3.4150	3.4149	-1.1380	6.94	0.98	-0.750			
0.6885	44063.20	3.4120	3.4120	-1.1064	6.95	0.99	-0.750			
0.6917	44271.30	3.4090	3.4091	-1.0767	6.96	1.00	-0.750			
0.6949	44475.90	3.4060	3.4059	-1.0515	6.97	1.01	-0.750			
0.6980	44674.91	3.4030	3.4030	-1.0255	6.99	1.03	-0.750			
0.7011	44867.87	3.4000	3.4000	-0.9946	7.00	1.04	-0.750			
0.7040	45058.40	3.3970	3.3971	-0.9738	7.01	1.05	-0.750			
0.7069	45242.65	3.3940	3.3940	-0.9499	7.02	1.06	-0.750			
0.7097	45421.84	3.3910	3.3910	-0.9182	7.04	1.08	-0.750			
0.7124	45595.76	3.3880	3.3880	-0.8942	7.05	1.09	-0.750			
0.7151	45763.37	3.3850	3.3850	-0.8692	7.06	1.10	-0.750			
0.7176	45928.66	3.3820	3.3819	-0.8423	7.08	1.12	-0.750			
0.7201	46088.44	3.3790	3.3790	-0.8198	7.09	1.13	-0.750			
0.7225	46242.37	3.3760	3.3760	-0.7945	7.10	1.14	-0.750			
0.7249	46392.24	3.3730	3.3731	-0.7746	7.11	1.15	-0.750			
0.7272	46537.82	3.3700	3.3700	-0.7305	7.12	1.16	-0.750			
