Ah_balance (normalized)	Ah_balance (mAh)	Voltage - fit (V)	Voltage -  interpolate (V)	dQ/dV (1/V)	Temperature (°C)	Temperature - diff (°C)	Current (C)	R_DC 0ms (mOhm)	R_DC 50ms (mOhm)	R_DC 50 ms PEC (mOhm)
0.0960	6146.55	4.0040	4.0035	-0.0783	5.99	0.02	-0.750			
0.0963	6164.00	4.0010	4.0008	-0.1056	5.98	0.01	-0.750			
0.0967	6186.97	3.9980	3.9981	-0.1337	5.98	0.01	-0.750			
0.0971	6215.41	3.9950	3.9950	-0.1616	5.98	0.01	-0.750			
0.0976	6249.09	3.9920	3.9919	-0.1897	5.98	0.01	-0.750			
0.0983	6289.08	3.9890	3.9890	-0.2155	5.98	0.01	-0.750			
0.0990	6333.20	3.9860	3.9860	-0.2391	5.98	0.01	-0.750			
0.0997	6382.23	3.9830	3.9830	-0.2618	5.98	0.01	-0.750			
0.1006	6435.23	3.9800	3.9801	-0.2834	5.98	0.01	-0.750			
0.1014	6490.56	3.9770	3.9770	-0.3068	5.98	0.01	-0.750			
0.1024	6551.93	3.9740	3.9741	-0.3289	5.97	0.00	-0.750			
0.1034	6616.36	3.9710	3.9709	-0.3528	5.97	0.00	-0.750			
0.1045	6686.47	3.9680	3.9680	-0.3782	5.97	0.00	-0.750			
0.1057	6762.06	3.9650	3.9652	-0.4000	5.97	-0.00	-0.750			
0.1069	6840.79	3.9620	3.9621	-0.4248	5.97	-0.00	-0.750			
0.1082	6925.06	3.9590	3.9591	-0.4489	5.97	-0.00	-0.750			
0.1096	7013.28	3.9560	3.9558	-0.4703	5.96	-0.01	-0.750			
0.1110	7106.59	3.9530	3.9530	-0.4929	5.96	-0.01	-0.750			
0.1125	7203.00	3.9500	3.9501	-0.5144	5.96	-0.01	-0.750			
0.1141	7305.13	3.9470	3.9470	-0.5353	5.96	-0.01	-0.750			
0.1158	7411.12	3.9440	3.9440	-0.5502	5.95	-0.02	-0.750			
0.1175	7517.62	3.9410	3.9410	-0.5623	5.95	-0.02	-0.750			
0.1192	7626.69	3.9380	3.9380	-0.5783	5.95	-0.02	-0.750			
0.1209	7739.60	3.9350	3.9349	-0.5899	5.95	-0.02	-0.750			
0.1227	7852.34	3.9320	3.9320	-0.6055	5.94	-0.03	-0.750			
0.1245	7969.45	3.9290	3.9290	-0.6184	5.94	-0.03	-0.750			
0.1264	8091.59	3.9260	3.9261	-0.6338	5.94	-0.03	-0.750			
0.1284	8215.50	3.9230	3.9229	-0.6460	5.93	-0.04	-0.750			
0.1303	8341.43	3.9200	3.9201	-0.6541	5.93	-0.04	-0.750			
0.1323	8467.49	3.9170	3.9170	-0.6616	5.93	-0.04	-0.750			
0.1343	8596.24	3.9140	3.9140	-0.6695	5.93	-0.04	-0.750			
0.1363	8724.00	3.9110	3.9110	-0.6735	5.93	-0.04	-0.750			
0.1383	8853.95	3.9080	3.9080	-0.6824	5.94	-0.03	-0.750			
0.1404	8985.65	3.9050	3.9050	-0.6901	5.94	-0.03	-0.750			
0.1425	9119.59	3.9020	3.9020	-0.6957	5.94	-0.03	-0.750			
0.1446	9254.30	3.8990	3.8989	-0.6995	5.94	-0.03	-0.750			
0.1467	9389.36	3.8960	3.8961	-0.7014	5.94	-0.03	-0.750			
0.1488	9524.94	3.8930	3.8930	-0.7041	5.94	-0.03	-0.750			
0.1509	9659.41	3.8900	3.8900	-0.7071	5.95	-0.02	-0.750			
0.1530	9794.49	3.8870	3.8870	-0.7084	5.95	-0.02	-0.750			
0.1552	9930.55	3.8840	3.8841	-0.7132	5.95	-0.02	-0.750			
0.1573	10069.18	3.8810	3.8809	-0.7183	5.95	-0.02	-0.750			
0.1595	10207.81	3.8780	3.8780	-0.7180	5.96	-0.01	-0.750			
0.1617	10345.83	3.8750	3.8750	-0.7266	5.96	-0.01	-0.750			
0.1638	10485.63	3.8720	3.8720	-0.7300	5.96	-0.01	-0.750			
0.1660	10626.29	3.8690	3.8689	-0.7341	5.97	-0.00	-0.750			
0.1683	10768.87	3.8660	3.8662	-0.7350	5.97	0.00	-0.750			
0.1705	10910.29	3.8630	3.8630	-0.7359	5.97	0.00	-0.750			
0.1727	11051.15	3.8600	3.8600	-0.7408	5.98	0.01	-0.750			
0.1749	11194.20	3.8570	3.8569	-0.7387	5.98	0.01	-0.750			
0.1771	11335.66	3.8540	3.8539	-0.7406	5.98	0.01	-0.750			
0.1793	11478.18	3.8510	3.8510	-0.7388	5.99	0.02	-0.750			
0.1816	11619.98	3.8480	3.8480	-0.7413	5.99	0.02	-0.750			
0.1838	11762.55	3.8450	3.8450	-0.7467	6.00	0.03	-0.750			
0.1860	11905.15	3.8420	3.8420	-0.7476	6.00	0.03	-0.750			
0.1883	12049.50	3.8390	3.8389	-0.7443	6.00	0.03	-0.750			
0.1905	12194.31	3.8360	3.8360	-0.7467	6.01	0.04	-0.750			
0.1928	12337.15	3.8330	3.8331	-0.7466	6.01	0.04	-0.750			
0.1950	12480.36	3.8300	3.8299	-0.7494	6.01	0.04	-0.750			
0.1972	12622.72	3.8270	3.8270	-0.7476	6.02	0.05	-0.750			
0.1995	12766.97	3.8240	3.8240	-0.7465	6.02	0.05	-0.750			
0.2017	12910.69	3.8210	3.8211	-0.7488	6.02	0.05	-0.750			
0.2040	13057.49	3.8180	3.8180	-0.7521	6.03	0.06	-0.750			
0.2063	13200.35	3.8150	3.8150	-0.7477	6.03	0.06	-0.750			
0.2085	13342.78	3.8120	3.8120	-0.7462	6.04	0.07	-0.750			
0.2107	13485.69	3.8090	3.8091	-0.7544	6.05	0.08	-0.750			
0.2130	13631.75	3.8060	3.8059	-0.7569	6.05	0.08	-0.750			
0.2153	13780.02	3.8030	3.8029	-0.7495	6.06	0.09	-0.750			
0.2176	13923.82	3.8000	3.8000	-0.7462	6.07	0.10	-0.750			
0.2198	14065.75	3.7970	3.7970	-0.7493	6.07	0.10	-0.750			
0.2220	14207.41	3.7940	3.7939	-0.7478	6.08	0.11	-0.750			
0.2243	14352.05	3.7910	3.7908	-0.7542	6.08	0.11	-0.750			
0.2265	14497.01	3.7880	3.7881	-0.7547	6.08	0.11	-0.750			
0.2289	14646.72	3.7850	3.7849	-0.7647	6.09	0.12	-0.750			
0.2312	14794.55	3.7820	3.7822	-0.7668	6.09	0.12	-0.750			
0.2334	14940.09	3.7790	3.7789	-0.7617	6.10	0.13	-0.750			
0.2357	15084.70	3.7760	3.7759	-0.7636	6.10	0.13	-0.750			
0.2380	15230.37	3.7730	3.7731	-0.7593	6.11	0.14	-0.750			
0.2403	15379.47	3.7700	3.7699	-0.7699	6.11	0.14	-0.750			
0.2426	15528.93	3.7670	3.7670	-0.7669	6.12	0.15	-0.750			
0.2449	15675.01	3.7640	3.7639	-0.7663	6.12	0.15	-0.750			
0.2472	15820.55	3.7610	3.7610	-0.7682	6.13	0.16	-0.750			
0.2495	15968.46	3.7580	3.7580	-0.7711	6.14	0.17	-0.750			
0.2518	16114.87	3.7550	3.7550	-0.7738	6.14	0.17	-0.750			
0.2542	16265.96	3.7520	3.7519	-0.7820	6.15	0.18	-0.750			
0.2565	16415.54	3.7490	3.7490	-0.7847	6.15	0.18	-0.750			
0.2589	16567.35	3.7460	3.7460	-0.7959	6.16	0.19	-0.750			
0.2613	16720.14	3.7430	3.7430	-0.7969	6.16	0.19	-0.750			
0.2637	16874.32	3.7400	3.7400	-0.7975	6.16	0.19	-0.750			
0.2661	17029.12	3.7370	3.7370	-0.7989	6.17	0.20	-0.750			
0.2685	17181.72	3.7340	3.7341	-0.8019	6.17	0.20	-0.750			
0.2709	17335.61	3.7310	3.7310	-0.8046	6.18	0.21	-0.750			
0.2733	17489.60	3.7280	3.7279	-0.8134	6.19	0.22	-0.750			
0.2757	17646.60	3.7250	3.7250	-0.8181	6.19	0.22	-0.750			
0.2782	17806.17	3.7220	3.7219	-0.8254	6.20	0.23	-0.750			
0.2807	17965.84	3.7190	3.7193	-0.8266	6.21	0.24	-0.750			
0.2832	18125.81	3.7160	3.7160	-0.8287	6.21	0.24	-0.750			
0.2857	18282.98	3.7130	3.7130	-0.8358	6.22	0.25	-0.750			
0.2882	18441.77	3.7100	3.7100	-0.8407	6.22	0.25	-0.750			
0.2907	18604.91	3.7070	3.7069	-0.8539	6.23	0.26	-0.750			
0.2933	18768.92	3.7040	3.7042	-0.8623	6.23	0.26	-0.750			
0.2959	18936.48	3.7010	3.7010	-0.8746	6.23	0.26	-0.750			
0.2985	19106.02	3.6980	3.6980	-0.8782	6.24	0.27	-0.750			
0.3012	19275.07	3.6950	3.6950	-0.8834	6.24	0.27	-0.750			
0.3038	19444.25	3.6920	3.6921	-0.8911	6.25	0.28	-0.750			
0.3065	19615.73	3.6890	3.6889	-0.9005	6.25	0.28	-0.750			
0.3092	19788.98	3.6860	3.6860	-0.9155	6.26	0.29	-0.750			
0.3120	19967.26	3.6830	3.6829	-0.9230	6.26	0.29	-0.750			
0.3148	20146.12	3.6800	3.6800	-0.9344	6.26	0.29	-0.750			
0.3176	20327.81	3.6770	3.6773	-0.9445	6.27	0.30	-0.750			
0.3204	20508.06	3.6740	3.6739	-0.9566	6.27	0.30	-0.750			
0.3233	20693.55	3.6710	3.6709	-0.9612	6.28	0.31	-0.750			
0.3262	20877.55	3.6680	3.6680	-0.9625	6.28	0.31	-0.750			
0.3291	21064.88	3.6650	3.6651	-0.9783	6.29	0.32	-0.750			
0.3321	21253.47	3.6620	3.6620	-0.9790	6.29	0.32	-0.750			
0.3350	21441.24	3.6590	3.6589	-0.9856	6.29	0.32	-0.750			
0.3380	21628.96	3.6560	3.6559	-0.9930	6.29	0.32	-0.750			
0.3409	21818.75	3.6530	3.6531	-1.0066	6.29	0.32	-0.750			
0.3440	22015.10	3.6500	3.6501	-1.0240	6.29	0.32	-0.750			
0.3471	22214.03	3.6470	3.6468	-1.0355	6.30	0.33	-0.750			
0.3502	22413.27	3.6440	3.6440	-1.0460	6.30	0.33	-0.750			
0.3533	22614.29	3.6410	3.6411	-1.0522	6.31	0.34	-0.750			
0.3565	22818.68	3.6380	3.6380	-1.0745	6.31	0.34	-0.750			
0.3598	23025.99	3.6350	3.6349	-1.0777	6.31	0.34	-0.750			
0.3630	23235.00	3.6320	3.6319	-1.0821	6.31	0.34	-0.750			
0.3663	23444.32	3.6290	3.6290	-1.0937	6.31	0.34	-0.750			
0.3696	23653.70	3.6260	3.6260	-1.1053	6.31	0.34	-0.750			
0.3729	23866.76	3.6230	3.6229	-1.1110	6.32	0.35	-0.750			
0.3763	24080.37	3.6200	3.6200	-1.1234	6.32	0.35	-0.750			
0.3796	24295.32	3.6170	3.6170	-1.1286	6.33	0.36	-0.750			
0.3831	24517.16	3.6140	3.6141	-1.1493	6.33	0.36	-0.750			
0.3866	24740.70	3.6110	3.6109	-1.1592	6.34	0.37	-0.750			
0.3900	24962.57	3.6080	3.6080	-1.1635	6.35	0.38	-0.750			
0.3935	25186.09	3.6050	3.6052	-1.1786	6.35	0.38	-0.750			
0.3971	25414.94	3.6020	3.6019	-1.1905	6.35	0.38	-0.750			
0.4007	25643.51	3.5990	3.5989	-1.1984	6.35	0.38	-0.750			
0.4043	25873.86	3.5960	3.5960	-1.2102	6.35	0.38	-0.750			
0.4080	26109.90	3.5930	3.5930	-1.2276	6.35	0.38	-0.750			
0.4117	26345.81	3.5900	3.5901	-1.2299	6.35	0.38	-0.750	0.484	1.103	
0.4153	26580.24	3.5870	3.5869	-1.2448	6.35	0.38	-0.750			
0.4191	26819.22	3.5840	3.5841	-1.2646	6.35	0.38	-0.750			
0.4229	27068.39	3.5810	3.5810	-1.2824	6.36	0.39	-0.750			
0.4268	27317.17	3.5780	3.5779	-1.2987	6.36	0.39	-0.750			
0.4307	27567.11	3.5750	3.5753	-1.3162	6.37	0.40	-0.750			
0.4348	27824.62	3.5720	3.5719	-1.3285	6.37	0.40	-0.750			
0.4387	28079.97	3.5690	3.5689	-1.3364	6.37	0.40	-0.750			
0.4427	28334.88	3.5660	3.5663	-1.3460	6.37	0.40	-0.750			
0.4469	28599.63	3.5630	3.5629	-1.3626	6.38	0.41	-0.750			
0.4509	28859.97	3.5600	3.5599	-1.3693	6.38	0.41	-0.750			
0.4550	29121.88	3.5570	3.5572	-1.3798	6.39	0.42	-0.750			
0.4592	29389.82	3.5540	3.5539	-1.4020	6.39	0.42	-0.750			
0.4634	29659.95	3.5510	3.5510	-1.4086	6.39	0.42	-0.750			
0.4676	29929.44	3.5480	3.5482	-1.4227	6.39	0.42	-0.750			
0.4720	30205.17	3.5450	3.5450	-1.4365	6.40	0.43	-0.750			
0.4764	30487.60	3.5420	3.5418	-1.4509	6.40	0.43	-0.750			
0.4807	30767.22	3.5390	3.5392	-1.4511	6.41	0.44	-0.750			
0.4851	31045.56	3.5360	3.5361	-1.4634	6.42	0.45	-0.750			
0.4895	31327.55	3.5330	3.5329	-1.4778	6.42	0.45	-0.750			
0.4940	31613.39	3.5300	3.5299	-1.4853	6.43	0.46	-0.750			
0.4984	31896.89	3.5270	3.5272	-1.5089	6.43	0.46	-0.750			
0.5029	32188.66	3.5240	3.5238	-1.5275	6.43	0.46	-0.750			
0.5076	32486.04	3.5210	3.5210	-1.5499	6.43	0.46	-0.750			
0.5123	32788.13	3.5180	3.5180	-1.5569	6.44	0.47	-0.750			
0.5170	33089.60	3.5150	3.5150	-1.5695	6.45	0.48	-0.750			
0.5217	33386.77	3.5120	3.5120	-1.5622	6.45	0.48	-0.750			
0.5264	33691.85	3.5090	3.5087	-1.5613	6.45	0.48	-0.750			
0.5310	33986.20	3.5060	3.5062	-1.5648	6.45	0.48	-0.750			
0.5358	34291.50	3.5030	3.5029	-1.5684	6.47	0.50	-0.750			
0.5405	34594.70	3.5000	3.5000	-1.5812	6.48	0.51	-0.750			
0.5453	34896.79	3.4970	3.4969	-1.5771	6.49	0.52	-0.750			
0.5501	35205.23	3.4940	3.4939	-1.5745	6.50	0.53	-0.750			
0.5548	35507.95	3.4910	3.4911	-1.5667	6.51	0.54	-0.750			
0.5595	35806.77	3.4880	3.4880	-1.5574	6.52	0.55	-0.750			
0.5642	36105.95	3.4850	3.4849	-1.5666	6.52	0.55	-0.750			
0.5689	36411.22	3.4820	3.4820	-1.5521	6.53	0.56	-0.750			
0.5735	36706.89	3.4790	3.4793	-1.5345	6.54	0.57	-0.750			
0.5781	37000.47	3.4760	3.4761	-1.5284	6.55	0.58	-0.750			
0.5827	37295.28	3.4730	3.4729	-1.5178	6.55	0.58	-0.750			
0.5872	37583.88	3.4700	3.4699	-1.5161	6.56	0.59	-0.750			
0.5918	37874.12	3.4670	3.4671	-1.5111	6.57	0.60	-0.750			
0.5963	38162.42	3.4640	3.4639	-1.5029	6.58	0.61	-0.750			
0.6009	38455.98	3.4610	3.4611	-1.4880	6.60	0.63	-0.750			
0.6053	38740.31	3.4580	3.4581	-1.4743	6.61	0.64	-0.750			
0.6097	39021.80	3.4550	3.4550	-1.4525	6.62	0.65	-0.750			
0.6140	39297.20	3.4520	3.4519	-1.4357	6.63	0.66	-0.750			
0.6183	39568.62	3.4490	3.4493	-1.4269	6.64	0.67	-0.750			
0.6226	39844.06	3.4460	3.4459	-1.4114	6.65	0.68	-0.750			
0.6268	40117.61	3.4430	3.4429	-1.3877	6.67	0.70	-0.750			
0.6310	40382.63	3.4400	3.4403	-1.3754	6.68	0.71	-0.750			
0.6351	40646.03	3.4370	3.4369	-1.3572	6.69	0.72	-0.750			
0.6391	40903.49	3.4340	3.4339	-1.3296	6.71	0.74	-0.750			
0.6430	41153.48	3.4310	3.4313	-1.2958	6.72	0.75	-0.750			
0.6469	41403.16	3.4280	3.4279	-1.2819	6.73	0.76	-0.750			
0.6507	41647.81	3.4250	3.4250	-1.2521	6.74	0.77	-0.750			
0.6545	41886.10	3.4220	3.4220	-1.2229	6.75	0.78	-0.750			
0.6581	42117.24	3.4190	3.4189	-1.1979	6.76	0.79	-0.750			
0.6616	42345.06	3.4160	3.4160	-1.1654	6.78	0.81	-0.750			
0.6651	42564.50	3.4130	3.4129	-1.1361	6.80	0.83	-0.750			
0.6684	42777.34	3.4100	3.4102	-1.1194	6.81	0.84	-0.750			
0.6717	42991.43	3.4070	3.4069	-1.0877	6.83	0.86	-0.750			
0.6750	43198.95	3.4040	3.4039	-1.0631	6.84	0.87	-0.750			
0.6781	43400.52	3.4010	3.4009	-1.0341	6.86	0.89	-0.750			
0.6812	43597.91	3.3980	3.3982	-1.0115	6.87	0.90	-0.750			
0.6842	43789.12	3.3950	3.3949	-0.9863	6.89	0.92	-0.750			
0.6871	43975.12	3.3920	3.3919	-0.9509	6.90	0.93	-0.750			
0.6899	44151.60	3.3890	3.3891	-0.9225	6.92	0.95	-0.750			
0.6927	44331.13	3.3860	3.3862	-0.9084	6.93	0.96	-0.750			
0.6953	44502.36	3.3830	3.3829	-0.8817	6.94	0.97	-0.750			
0.6979	44668.54	3.3800	3.3800	-0.8634	6.95	0.98	-0.750			
0.7005	44830.53	3.3770	3.3770	-0.8415	6.97	1.00	-0.750			
0.7030	44990.88	3.3740	3.3739	-0.8228	6.98	1.01	-0.750			
0.7055	45149.68	3.3710	3.3712	-0.8068	6.99	1.02	-0.750			
0.7078	45301.09	3.3680	3.3680	-0.7830	7.01	1.04	-0.750			
0.7101	45449.51	3.3650	3.3650	-0.7700	7.02	1.05	-0.750			
0.7124	45596.78	3.3620	3.3619	-0.7449	7.03	1.06	-0.750			
0.7147	45737.68	3.3590	3.3589	-0.7228	7.05	1.08	-0.750			
0.7168	45873.89	3.3560	3.3560	-0.7035	7.06	1.09	-0.750			
0.7189	46008.19	3.3530	3.3530	-0.6813	7.08	1.11	-0.750			
0.7209	46136.56	3.3500	3.3498	-0.6538	7.09	1.12	-0.750			
0.7228	46260.69	3.3470	3.3471	-0.6516	7.10	1.13	-0.750			
