Ah_balance (normalized)	Ah_balance (mAh)	Voltage - fit (V)	Voltage -  interpolate (V)	dQ/dV (1/V)	Temperature (°C)	Temperature - diff (°C)	Current (C)	R_DC 0ms (mOhm)	R_DC 50ms (mOhm)	R_DC 50 ms PEC (mOhm)
0.1758	11248.88	4.0810	4.0809	0.7704	8.09	2.12	0.750			
0.1781	11400.76	4.0780	4.0780	0.7761	8.07	2.10	0.750			
0.1804	11545.82	4.0750	4.0751	0.7760	8.06	2.09	0.750			
0.1827	11694.97	4.0720	4.0721	0.7808	8.05	2.08	0.750			
0.1851	11846.06	4.0690	4.0688	0.7832	8.03	2.06	0.750			
0.1874	11995.42	4.0660	4.0662	0.7868	8.02	2.05	0.750			
0.1898	12148.16	4.0630	4.0630	0.7873	8.01	2.04	0.750			
0.1922	12299.21	4.0600	4.0600	0.7933	7.99	2.02	0.750			
0.1946	12453.14	4.0570	4.0570	0.8002	7.98	2.01	0.750			
0.1970	12605.08	4.0540	4.0541	0.7996	7.97	2.00	0.750			
0.1994	12759.57	4.0510	4.0509	0.8028	7.96	1.99	0.750			
0.2018	12916.39	4.0480	4.0480	0.8020	7.95	1.98	0.750			
0.2042	13068.31	4.0450	4.0451	0.8042	7.94	1.97	0.750			
0.2066	13223.74	4.0420	4.0420	0.8097	7.93	1.96	0.750			
0.2090	13377.11	4.0390	4.0390	0.8097	7.92	1.95	0.750			
0.2114	13531.43	4.0360	4.0360	0.8139	7.91	1.94	0.750			
0.2139	13691.18	4.0330	4.0330	0.8119	7.89	1.92	0.750			
0.2164	13848.16	4.0300	4.0300	0.8215	7.88	1.91	0.750			
0.2188	14006.38	4.0270	4.0271	0.8238	7.87	1.90	0.750			
0.2213	14163.02	4.0240	4.0241	0.8234	7.86	1.89	0.750			
0.2238	14320.98	4.0210	4.0209	0.8296	7.85	1.88	0.750			
0.2263	14482.48	4.0180	4.0180	0.8292	7.84	1.87	0.750			
0.2288	14644.12	4.0150	4.0149	0.8238	7.82	1.85	0.750			
0.2313	14802.00	4.0120	4.0121	0.8215	7.81	1.84	0.750			
0.2337	14956.37	4.0090	4.0092	0.8172	7.80	1.83	0.750			
0.2361	15112.47	4.0060	4.0059	0.8196	7.79	1.82	0.750			
0.2386	15270.79	4.0030	4.0028	0.8209	7.78	1.81	0.750			
0.2410	15426.62	4.0000	4.0000	0.8285	7.76	1.79	0.750			
0.2435	15586.99	3.9970	3.9971	0.8457	7.75	1.78	0.750			
0.2461	15752.81	3.9940	3.9941	0.8592	7.74	1.77	0.750			
0.2487	15917.47	3.9910	3.9910	0.8628	7.73	1.76	0.750			
0.2513	16086.17	3.9880	3.9880	0.8637	7.72	1.75	0.750			
0.2540	16253.01	3.9850	3.9851	0.8697	7.71	1.74	0.750			
0.2566	16419.79	3.9820	3.9820	0.8727	7.70	1.73	0.750			
0.2592	16586.90	3.9790	3.9790	0.8720	7.69	1.72	0.750			
0.2618	16752.54	3.9760	3.9761	0.8774	7.69	1.72	0.750			
0.2644	16923.34	3.9730	3.9729	0.8793	7.67	1.70	0.750			
0.2671	17093.21	3.9700	3.9701	0.8879	7.66	1.69	0.750			
0.2698	17264.98	3.9670	3.9670	0.8943	7.65	1.68	0.750			
0.2725	17436.88	3.9640	3.9640	0.8929	7.64	1.67	0.750			
0.2751	17609.24	3.9610	3.9610	0.8952	7.63	1.66	0.750			
0.2778	17781.13	3.9580	3.9581	0.9000	7.62	1.65	0.750			
0.2805	17953.37	3.9550	3.9550	0.9035	7.61	1.64	0.750			
0.2833	18128.82	3.9520	3.9519	0.9134	7.60	1.63	0.750			
0.2860	18302.41	3.9490	3.9491	0.9157	7.59	1.62	0.750			
0.2888	18482.08	3.9460	3.9459	0.9121	7.58	1.61	0.750			
0.2915	18658.14	3.9430	3.9430	0.9287	7.56	1.59	0.750			
0.2943	18835.68	3.9400	3.9401	0.9358	7.55	1.58	0.750			
0.2971	19014.78	3.9370	3.9369	0.9422	7.54	1.57	0.750			
0.3000	19197.29	3.9340	3.9341	0.9481	7.52	1.55	0.750			
0.3028	19378.38	3.9310	3.9311	0.9598	7.52	1.55	0.750			
0.3057	19565.26	3.9280	3.9280	0.9673	7.51	1.54	0.750			
0.3087	19756.15	3.9250	3.9249	0.9744	7.50	1.53	0.750			
0.3116	19940.06	3.9220	3.9221	0.9699	7.49	1.52	0.750			
0.3145	20126.96	3.9190	3.9191	0.9757	7.47	1.50	0.750			
0.3174	20313.25	3.9160	3.9161	0.9863	7.46	1.49	0.750			
0.3204	20503.16	3.9130	3.9129	0.9985	7.45	1.48	0.750			
0.3233	20693.96	3.9100	3.9098	1.0064	7.44	1.47	0.750			
0.3264	20890.42	3.9070	3.9071	1.0211	7.43	1.46	0.750			
0.3295	21088.13	3.9040	3.9041	1.0295	7.41	1.44	0.750			
0.3326	21287.49	3.9010	3.9010	1.0429	7.40	1.43	0.750			
0.3358	21490.65	3.8980	3.8981	1.0459	7.39	1.42	0.750			
0.3389	21688.30	3.8950	3.8951	1.0525	7.37	1.40	0.750			
0.3421	21891.56	3.8920	3.8919	1.0676	7.36	1.39	0.750			
0.3453	22098.83	3.8890	3.8891	1.0790	7.34	1.37	0.750			
0.3486	22310.22	3.8860	3.8857	1.0772	7.33	1.36	0.750			
0.3518	22514.72	3.8830	3.8831	1.0940	7.31	1.34	0.750			
0.3550	22723.18	3.8800	3.8801	1.1091	7.30	1.33	0.750			
0.3584	22937.97	3.8770	3.8772	1.1346	7.28	1.31	0.750			
0.3618	23157.91	3.8740	3.8739	1.1371	7.27	1.30	0.750			
0.3653	23378.42	3.8710	3.8712	1.1624	7.26	1.29	0.750			
0.3688	23605.22	3.8680	3.8681	1.1852	7.24	1.27	0.750			
0.3725	23836.94	3.8650	3.8647	1.1935	7.23	1.26	0.750			
0.3760	24064.67	3.8620	3.8621	1.2018	7.22	1.25	0.750			
0.3796	24295.06	3.8590	3.8591	1.2169	7.20	1.23	0.750			
0.3833	24530.27	3.8560	3.8560	1.2396	7.18	1.21	0.750			
0.3871	24772.07	3.8530	3.8529	1.2577	7.16	1.19	0.750			
0.3908	25010.68	3.8500	3.8501	1.2693	7.15	1.18	0.750			
0.3946	25254.77	3.8470	3.8471	1.3031	7.13	1.16	0.750			
0.3986	25508.18	3.8440	3.8438	1.3359	7.11	1.14	0.750			
0.4026	25764.99	3.8410	3.8410	1.3670	7.09	1.12	0.750			
0.4068	26034.98	3.8380	3.8378	1.3936	7.07	1.10	0.750	0.399	0.884	
0.4110	26305.21	3.8350	3.8348	1.4200	7.05	1.08	0.750			
0.4153	26579.50	3.8320	3.8320	1.4437	7.03	1.06	0.750			
0.4197	26862.98	3.8290	3.8292	1.4633	7.01	1.04	0.750			
0.4241	27142.56	3.8260	3.8257	1.4793	6.99	1.02	0.750			
0.4285	27425.24	3.8230	3.8232	1.5024	6.96	0.99	0.750			
0.4330	27714.66	3.8200	3.8202	1.5224	6.94	0.97	0.750			
0.4377	28012.09	3.8170	3.8168	1.5767	6.92	0.95	0.750			
0.4424	28311.26	3.8140	3.8138	1.5835	6.90	0.93	0.750			
0.4472	28623.65	3.8110	3.8110	1.6127	6.87	0.90	0.750			
0.4522	28940.44	3.8080	3.8083	1.6342	6.85	0.88	0.750			
0.4571	29251.24	3.8050	3.8051	1.6655	6.82	0.85	0.750			
0.4620	29567.92	3.8020	3.8017	1.6996	6.79	0.82	0.750			
0.4671	29893.54	3.7990	3.7989	1.7343	6.76	0.79	0.750			
0.4725	30238.85	3.7960	3.7960	1.7455	6.73	0.76	0.750			
0.4779	30586.58	3.7930	3.7932	1.7507	6.71	0.74	0.750			
0.4831	30916.78	3.7900	3.7904	1.7961	6.68	0.71	0.750			
0.4884	31259.92	3.7870	3.7871	1.8522	6.65	0.68	0.750			
0.4942	31626.36	3.7840	3.7841	1.8754	6.62	0.65	0.750			
0.4998	31986.25	3.7810	3.7812	1.9017	6.58	0.61	0.750			
0.5055	32354.63	3.7780	3.7783	1.9246	6.56	0.59	0.750			
0.5114	32727.94	3.7750	3.7748	1.8991	6.54	0.57	0.750			
0.5172	33102.58	3.7720	3.7718	1.9268	6.50	0.53	0.750			
0.5231	33480.03	3.7690	3.7687	1.9552	6.47	0.50	0.750			
0.5287	33837.24	3.7660	3.7661	1.9553	6.44	0.47	0.750			
0.5347	34220.89	3.7630	3.7630	1.9850	6.41	0.44	0.750			
0.5409	34617.51	3.7600	3.7597	2.0651	6.38	0.41	0.750			
0.5471	35012.96	3.7570	3.7570	2.0585	6.35	0.38	0.750			
0.5532	35405.52	3.7540	3.7540	2.0825	6.32	0.35	0.750			
0.5593	35795.48	3.7510	3.7508	2.0982	6.29	0.32	0.750			
0.5657	36205.69	3.7480	3.7481	2.1755	6.26	0.29	0.750			
0.5724	36635.30	3.7450	3.7449	2.2536	6.23	0.26	0.750			
0.5791	37062.45	3.7420	3.7421	2.2726	6.20	0.23	0.750			
0.5861	37510.01	3.7390	3.7390	2.3009	6.17	0.20	0.750			
0.5931	37956.92	3.7360	3.7360	2.3297	6.13	0.16	0.750			
0.6001	38406.85	3.7330	3.7329	2.3587	6.10	0.13	0.750			
0.6073	38864.85	3.7300	3.7298	2.4090	6.08	0.11	0.750			
0.6146	39336.92	3.7270	3.7269	2.4474	6.06	0.09	0.750			
0.6222	39817.90	3.7240	3.7239	2.4521	6.03	0.06	0.750			
0.6294	40282.12	3.7210	3.7208	2.3863	6.02	0.05	0.750			
0.6363	40721.78	3.7180	3.7179	2.1942	6.01	0.04	0.750			
0.6427	41131.56	3.7150	3.7152	2.0259	5.99	0.02	0.750			
0.6484	41499.60	3.7120	3.7120	1.7972	5.98	0.01	0.750			
0.6538	41840.65	3.7090	3.7092	1.6590	5.98	0.01	0.750			
0.6585	42141.27	3.7060	3.7061	1.4950	5.97	0.00	0.750			
0.6627	42411.93	3.7030	3.7029	1.3493	5.97	0.00	0.750			
0.6662	42636.72	3.7000	3.7001	1.2088	5.97	0.00	0.750			
0.6697	42858.09	3.6970	3.6971	1.1282	5.97	0.00	0.750			
0.6729	43062.95	3.6940	3.6936	1.0619	5.97	0.00	0.750			
0.6759	43257.68	3.6910	3.6912	0.9973	5.97	-0.00	0.750			
0.6788	43443.40	3.6880	3.6880	0.9584	5.97	-0.00	0.750			
0.6816	43622.99	3.6850	3.6849	0.9226	5.96	-0.01	0.750			
0.6843	43792.71	3.6820	3.6821	0.8855	5.96	-0.01	0.750			
0.6868	43958.23	3.6790	3.6790	0.8591	5.96	-0.01	0.750			
0.6895	44125.87	3.6760	3.6760	0.8360	5.96	-0.01	0.750			
0.6919	44284.16	3.6730	3.6730	0.8081	5.95	-0.02	0.750			
0.6943	44437.61	3.6700	3.6700	0.7851	5.95	-0.02	0.750			
0.6966	44584.29	3.6670	3.6670	0.7517	5.95	-0.02	0.750			
0.6988	44725.62	3.6640	3.6639	0.7224	5.95	-0.02	0.750			
0.7010	44861.22	3.6610	3.6612	0.6917	5.95	-0.02	0.750			
0.7030	44992.17	3.6580	3.6579	0.6617	5.96	-0.01	0.750			
0.7050	45117.02	3.6550	3.6550	0.6283	5.96	-0.01	0.750			
0.7068	45233.43	3.6520	3.6520	0.5962	5.96	-0.01	0.750			
0.7085	45343.53	3.6490	3.6490	0.5674	5.97	-0.00	0.750			
0.7102	45450.11	3.6460	3.6458	0.5412	5.97	-0.00	0.750			
0.7118	45552.06	3.6430	3.6430	0.5116	5.97	0.00	0.750			
0.7133	45649.25	3.6400	3.6399	0.4813	5.97	0.00	0.750			
0.7147	45739.99	3.6370	3.6370	0.4464	5.98	0.01	0.750			
0.7160	45823.60	3.6340	3.6341	0.4107	5.98	0.01	0.750			
0.7172	45898.23	3.6310	3.6309	0.3708	5.98	0.01	0.750			
0.7182	45964.77	3.6280	3.6280	0.3319	5.98	0.01	0.750			
0.7191	46023.61	3.6250	3.6249	0.2937	5.98	0.01	0.750			
0.7200	46078.27	3.6220	3.6219	0.2536	5.98	0.01	0.750			
0.7207	46124.84	3.6190	3.6190	0.2183	5.99	0.02	0.750			
0.7213	46162.73	3.6160	3.6161	0.1759	5.99	0.02	0.750			
0.7218	46194.49	3.6130	3.6132	0.1342	5.99	0.02	0.750			
0.7221	46216.44	3.6100	3.6105	0.0880	5.99	0.02	0.750			
0.7223	46229.62	3.6070	3.6074	0.0383	5.99	0.02	0.750			
0.7224	46232.19	3.6040	3.6061	-0.0116	5.99	0.02	0.750			
