Ah_balance (normalized)	Ah_balance (mAh)	Voltage - fit (V)	Voltage -  interpolate (V)	dQ/dV (1/V)	Temperature (°C)	Temperature - diff (°C)	Current (C)	R_DC 0ms (mOhm)	R_DC 50ms (mOhm)	R_DC 50 ms PEC (mOhm)
0.0703	4497.04	4.0000	3.9997	-0.0760	6.00	0.01	-0.750			
0.0705	4514.45	3.9970	3.9968	-0.1054	6.00	0.01	-0.750			
0.0709	4537.97	3.9940	3.9940	-0.1344	6.00	0.01	-0.750			
0.0714	4566.47	3.9910	3.9910	-0.1617	6.00	0.01	-0.750			
0.0719	4600.62	3.9880	3.9879	-0.1868	5.99	0.00	-0.750			
0.0725	4639.19	3.9850	3.9851	-0.2107	5.99	0.00	-0.750			
0.0732	4682.51	3.9820	3.9820	-0.2364	5.99	0.00	-0.750			
0.0739	4730.14	3.9790	3.9790	-0.2609	5.99	-0.00	-0.750			
0.0747	4782.28	3.9760	3.9760	-0.2846	5.99	-0.00	-0.750			
0.0756	4839.20	3.9730	3.9729	-0.3107	5.98	-0.01	-0.750			
0.0766	4900.68	3.9700	3.9701	-0.3366	5.98	-0.01	-0.750			
0.0776	4968.21	3.9670	3.9670	-0.3641	5.98	-0.01	-0.750			
0.0788	5040.72	3.9640	3.9640	-0.3887	5.97	-0.02	-0.750			
0.0800	5117.57	3.9610	3.9610	-0.4143	5.97	-0.02	-0.750			
0.0812	5199.92	3.9580	3.9581	-0.4412	5.96	-0.03	-0.750			
0.0826	5287.23	3.9550	3.9549	-0.4672	5.96	-0.03	-0.750			
0.0841	5379.36	3.9520	3.9520	-0.4935	5.96	-0.03	-0.750			
0.0856	5476.59	3.9490	3.9490	-0.5208	5.95	-0.04	-0.750			
0.0872	5580.26	3.9460	3.9459	-0.5448	5.95	-0.04	-0.750			
0.0889	5687.98	3.9430	3.9430	-0.5666	5.95	-0.04	-0.750			
0.0906	5798.09	3.9400	3.9400	-0.5901	5.95	-0.04	-0.750			
0.0924	5913.79	3.9370	3.9371	-0.6110	5.95	-0.04	-0.750			
0.0943	6033.65	3.9340	3.9339	-0.6302	5.95	-0.04	-0.750			
0.0962	6156.62	3.9310	3.9310	-0.6484	5.95	-0.04	-0.750			
0.0982	6283.17	3.9280	3.9281	-0.6672	5.95	-0.04	-0.750			
0.1002	6414.35	3.9250	3.9250	-0.6822	5.95	-0.04	-0.750			
0.1023	6548.35	3.9220	3.9220	-0.6928	5.95	-0.04	-0.750			
0.1044	6681.51	3.9190	3.9190	-0.7064	5.95	-0.04	-0.750			
0.1066	6819.22	3.9160	3.9160	-0.7144	5.95	-0.04	-0.750			
0.1087	6958.14	3.9130	3.9129	-0.7248	5.95	-0.04	-0.750			
0.1109	7097.71	3.9100	3.9102	-0.7314	5.95	-0.04	-0.750			
0.1131	7239.12	3.9070	3.9070	-0.7382	5.95	-0.04	-0.750			
0.1153	7381.36	3.9040	3.9039	-0.7487	5.96	-0.03	-0.750			
0.1176	7526.21	3.9010	3.9010	-0.7543	5.96	-0.03	-0.750			
0.1199	7672.59	3.8980	3.8980	-0.7587	5.96	-0.03	-0.750			
0.1221	7817.39	3.8950	3.8950	-0.7712	5.97	-0.02	-0.750			
0.1245	7966.24	3.8920	3.8920	-0.7774	5.97	-0.02	-0.750			
0.1268	8116.58	3.8890	3.8889	-0.7857	5.98	-0.01	-0.750			
0.1292	8268.72	3.8860	3.8860	-0.7907	5.98	-0.01	-0.750			
0.1316	8421.98	3.8830	3.8831	-0.7890	5.98	-0.01	-0.750			
0.1340	8575.48	3.8800	3.8800	-0.7889	5.99	-0.00	-0.750			
0.1364	8726.68	3.8770	3.8771	-0.7891	5.99	0.00	-0.750			
0.1387	8875.12	3.8740	3.8740	-0.7840	6.00	0.01	-0.750			
0.1410	9025.71	3.8710	3.8710	-0.7896	6.01	0.02	-0.750			
0.1434	9176.58	3.8680	3.8680	-0.7956	6.01	0.02	-0.750			
0.1458	9330.38	3.8650	3.8650	-0.8009	6.02	0.03	-0.750			
0.1482	9485.37	3.8620	3.8621	-0.8068	6.03	0.04	-0.750			
0.1507	9641.81	3.8590	3.8590	-0.8088	6.03	0.04	-0.750			
0.1531	9797.02	3.8560	3.8559	-0.8077	6.04	0.05	-0.750			
0.1555	9951.85	3.8530	3.8531	-0.8072	6.04	0.05	-0.750			
0.1579	10106.21	3.8500	3.8500	-0.8078	6.05	0.06	-0.750			
0.1603	10261.23	3.8470	3.8470	-0.8105	6.05	0.06	-0.750			
0.1628	10417.71	3.8440	3.8440	-0.8142	6.05	0.06	-0.750			
0.1652	10573.59	3.8410	3.8410	-0.8167	6.06	0.07	-0.750			
0.1677	10731.39	3.8380	3.8380	-0.8203	6.06	0.07	-0.750			
0.1702	10890.01	3.8350	3.8350	-0.8217	6.06	0.07	-0.750			
0.1726	11047.67	3.8320	3.8320	-0.8222	6.07	0.08	-0.750			
0.1751	11205.03	3.8290	3.8290	-0.8237	6.08	0.09	-0.750			
0.1775	11362.73	3.8260	3.8260	-0.8271	6.08	0.09	-0.750			
0.1800	11522.56	3.8230	3.8230	-0.8301	6.09	0.10	-0.750			
0.1825	11682.53	3.8200	3.8200	-0.8305	6.10	0.11	-0.750			
0.1851	11843.92	3.8170	3.8170	-0.8323	6.11	0.12	-0.750			
0.1876	12003.28	3.8140	3.8139	-0.8341	6.12	0.13	-0.750			
0.1900	12162.95	3.8110	3.8109	-0.8307	6.12	0.13	-0.750			
0.1925	12320.87	3.8080	3.8081	-0.8317	6.13	0.14	-0.750			
0.1950	12478.96	3.8050	3.8050	-0.8344	6.14	0.15	-0.750			
0.1975	12641.82	3.8020	3.8020	-0.8399	6.15	0.16	-0.750			
0.2001	12804.00	3.7990	3.7989	-0.8391	6.16	0.17	-0.750			
0.2026	12965.75	3.7960	3.7961	-0.8411	6.16	0.17	-0.750			
0.2051	13126.24	3.7930	3.7930	-0.8402	6.17	0.18	-0.750			
0.2076	13287.75	3.7900	3.7900	-0.8440	6.18	0.19	-0.750			
0.2101	13449.30	3.7870	3.7869	-0.8432	6.19	0.20	-0.750			
0.2127	13610.33	3.7840	3.7839	-0.8439	6.19	0.20	-0.750			
0.2152	13773.62	3.7810	3.7810	-0.8489	6.20	0.21	-0.750			
0.2178	13938.14	3.7780	3.7780	-0.8516	6.20	0.21	-0.750			
0.2203	14100.77	3.7750	3.7750	-0.8495	6.21	0.22	-0.750			
0.2229	14265.24	3.7720	3.7720	-0.8494	6.21	0.22	-0.750			
0.2254	14428.78	3.7690	3.7689	-0.8459	6.22	0.23	-0.750			
0.2280	14590.51	3.7660	3.7660	-0.8457	6.22	0.23	-0.750			
0.2305	14752.28	3.7630	3.7630	-0.8421	6.23	0.24	-0.750			
0.2330	14912.65	3.7600	3.7600	-0.8405	6.24	0.25	-0.750			
0.2355	15074.57	3.7570	3.7570	-0.8426	6.25	0.26	-0.750			
0.2381	15235.96	3.7540	3.7540	-0.8458	6.26	0.27	-0.750			
0.2406	15398.76	3.7510	3.7510	-0.8516	6.27	0.28	-0.750			
0.2432	15562.58	3.7480	3.7480	-0.8562	6.27	0.28	-0.750			
0.2457	15727.06	3.7450	3.7450	-0.8599	6.28	0.29	-0.750			
0.2483	15893.92	3.7420	3.7421	-0.8661	6.29	0.30	-0.750			
0.2509	16059.98	3.7390	3.7390	-0.8709	6.30	0.31	-0.750			
0.2536	16227.98	3.7360	3.7360	-0.8710	6.31	0.32	-0.750			
0.2562	16395.43	3.7330	3.7330	-0.8705	6.31	0.32	-0.750			
0.2588	16563.04	3.7300	3.7300	-0.8755	6.32	0.33	-0.750			
0.2614	16731.05	3.7270	3.7271	-0.8735	6.33	0.34	-0.750			
0.2640	16897.98	3.7240	3.7239	-0.8766	6.33	0.34	-0.750			
0.2667	17066.62	3.7210	3.7210	-0.8785	6.34	0.35	-0.750			
0.2693	17234.75	3.7180	3.7180	-0.8803	6.34	0.35	-0.750			
0.2720	17405.29	3.7150	3.7149	-0.8869	6.35	0.36	-0.750			
0.2746	17575.69	3.7120	3.7120	-0.8875	6.35	0.36	-0.750			
0.2773	17744.67	3.7090	3.7090	-0.8953	6.36	0.37	-0.750			
0.2800	17917.81	3.7060	3.7060	-0.9033	6.37	0.38	-0.750			
0.2827	18091.71	3.7030	3.7029	-0.9061	6.38	0.39	-0.750			
0.2854	18267.09	3.7000	3.7001	-0.9137	6.39	0.40	-0.750			
0.2882	18442.32	3.6970	3.6970	-0.9227	6.40	0.41	-0.750			
0.2910	18621.48	3.6940	3.6939	-0.9242	6.41	0.42	-0.750			
0.2938	18800.03	3.6910	3.6910	-0.9265	6.42	0.43	-0.750			
0.2965	18975.93	3.6880	3.6880	-0.9319	6.42	0.43	-0.750			
0.2993	19156.10	3.6850	3.6851	-0.9415	6.43	0.44	-0.750			
0.3022	19337.60	3.6820	3.6819	-0.9482	6.44	0.45	-0.750			
0.3050	19518.42	3.6790	3.6790	-0.9581	6.44	0.45	-0.750			
0.3078	19702.33	3.6760	3.6761	-0.9696	6.45	0.46	-0.750			
0.3108	19892.80	3.6730	3.6729	-0.9862	6.45	0.46	-0.750			
0.3138	20082.93	3.6700	3.6700	-0.9992	6.46	0.47	-0.750			
0.3168	20275.41	3.6670	3.6671	-1.0085	6.47	0.48	-0.750			
0.3199	20471.58	3.6640	3.6640	-1.0216	6.48	0.49	-0.750			
0.3229	20668.45	3.6610	3.6609	-1.0358	6.49	0.50	-0.750			
0.3261	20867.64	3.6580	3.6580	-1.0475	6.50	0.51	-0.750			
0.3292	21070.98	3.6550	3.6550	-1.0600	6.50	0.51	-0.750			
0.3324	21276.14	3.6520	3.6520	-1.0767	6.51	0.52	-0.750			
0.3357	21483.39	3.6490	3.6492	-1.0882	6.52	0.53	-0.750			
0.3390	21694.21	3.6460	3.6459	-1.1070	6.52	0.53	-0.750			
0.3423	21908.35	3.6430	3.6429	-1.1183	6.53	0.54	-0.750			
0.3457	22122.69	3.6400	3.6400	-1.1321	6.54	0.55	-0.750			
0.3491	22343.70	3.6370	3.6371	-1.1591	6.54	0.55	-0.750			
0.3526	22567.28	3.6340	3.6340	-1.1716	6.55	0.56	-0.750			
0.3562	22794.07	3.6310	3.6309	-1.1860	6.56	0.57	-0.750			
0.3597	23021.75	3.6280	3.6280	-1.2067	6.57	0.58	-0.750			
0.3634	23255.83	3.6250	3.6250	-1.2221	6.57	0.58	-0.750			
0.3671	23493.37	3.6220	3.6219	-1.2357	6.58	0.59	-0.750			
0.3708	23730.21	3.6190	3.6189	-1.2518	6.59	0.60	-0.750			
0.3746	23971.54	3.6160	3.6162	-1.2677	6.59	0.60	-0.750			
0.3784	24217.84	3.6130	3.6130	-1.2906	6.60	0.61	-0.750			
0.3823	24466.24	3.6100	3.6100	-1.3116	6.60	0.61	-0.750			
0.3862	24718.47	3.6070	3.6071	-1.3288	6.61	0.62	-0.750			
0.3903	24980.46	3.6040	3.6040	-1.3486	6.62	0.63	-0.750			
0.3944	25240.16	3.6010	3.6011	-1.3752	6.62	0.63	-0.750	0.491	1.147	
0.3985	25505.91	3.5980	3.5980	-1.3935	6.63	0.64	-0.750			
0.4027	25775.76	3.5950	3.5950	-1.4154	6.64	0.65	-0.750			
0.4070	26049.33	3.5920	3.5918	-1.4322	6.64	0.65	-0.750			
0.4113	26324.91	3.5890	3.5891	-1.4564	6.65	0.66	-0.750			
0.4158	26608.38	3.5860	3.5859	-1.4801	6.65	0.66	-0.750			
0.4202	26895.37	3.5830	3.5830	-1.5027	6.65	0.66	-0.750			
0.4247	27181.68	3.5800	3.5801	-1.5234	6.65	0.66	-0.750			
0.4294	27480.25	3.5770	3.5769	-1.5600	6.66	0.67	-0.750			
0.4341	27783.61	3.5740	3.5740	-1.5783	6.67	0.68	-0.750			
0.4389	28092.32	3.5710	3.5708	-1.5918	6.67	0.68	-0.750			
0.4437	28395.61	3.5680	3.5680	-1.6090	6.68	0.69	-0.750			
0.4486	28709.77	3.5650	3.5652	-1.6284	6.69	0.70	-0.750			
0.4535	29021.17	3.5620	3.5619	-1.6437	6.69	0.70	-0.750			
0.4584	29337.05	3.5590	3.5590	-1.6545	6.70	0.71	-0.750			
0.4634	29656.44	3.5560	3.5560	-1.6779	6.70	0.71	-0.750			
0.4685	29984.40	3.5530	3.5530	-1.7053	6.71	0.72	-0.750			
0.4736	30309.97	3.5500	3.5502	-1.7199	6.71	0.72	-0.750			
0.4788	30641.30	3.5470	3.5468	-1.7292	6.72	0.73	-0.750			
0.4840	30977.04	3.5440	3.5441	-1.7424	6.73	0.74	-0.750			
0.4892	31311.87	3.5410	3.5410	-1.7544	6.73	0.74	-0.750			
0.4945	31650.40	3.5380	3.5379	-1.7825	6.74	0.75	-0.750			
0.4999	31996.04	3.5350	3.5349	-1.7826	6.74	0.75	-0.750			
0.5053	32337.06	3.5320	3.5321	-1.8123	6.75	0.76	-0.750			
0.5107	32687.43	3.5290	3.5291	-1.8006	6.75	0.76	-0.750			
0.5161	33033.11	3.5260	3.5259	-1.8052	6.76	0.77	-0.750			
0.5215	33377.62	3.5230	3.5230	-1.8133	6.78	0.79	-0.750			
0.5270	33728.49	3.5200	3.5199	-1.8263	6.78	0.79	-0.750			
0.5325	34077.28	3.5170	3.5170	-1.8314	6.79	0.80	-0.750			
0.5381	34438.60	3.5140	3.5140	-1.8607	6.79	0.80	-0.750			
0.5436	34791.71	3.5110	3.5110	-1.8373	6.80	0.81	-0.750			
0.5490	35139.17	3.5080	3.5080	-1.8208	6.81	0.82	-0.750			
0.5545	35487.89	3.5050	3.5048	-1.8111	6.82	0.83	-0.750			
0.5599	35835.29	3.5020	3.5019	-1.7992	6.84	0.85	-0.750			
0.5653	36180.64	3.4990	3.4990	-1.7961	6.84	0.85	-0.750			
0.5707	36526.74	3.4960	3.4961	-1.7733	6.85	0.86	-0.750			
0.5760	36866.96	3.4930	3.4931	-1.7570	6.85	0.86	-0.750			
0.5813	37202.28	3.4900	3.4900	-1.7398	6.86	0.87	-0.750			
0.5865	37533.57	3.4870	3.4870	-1.7188	6.87	0.88	-0.750			
0.5916	37863.86	3.4840	3.4841	-1.7116	6.88	0.89	-0.750			
0.5967	38189.68	3.4810	3.4809	-1.6887	6.90	0.91	-0.750			
0.6018	38514.39	3.4780	3.4779	-1.6660	6.91	0.92	-0.750			
0.6068	38835.96	3.4750	3.4752	-1.6457	6.92	0.93	-0.750			
0.6117	39146.14	3.4720	3.4720	-1.6160	6.93	0.94	-0.750			
0.6165	39454.22	3.4690	3.4691	-1.5878	6.94	0.95	-0.750			
0.6212	39756.03	3.4660	3.4659	-1.5621	6.95	0.96	-0.750			
0.6258	40053.12	3.4630	3.4630	-1.5321	6.96	0.97	-0.750			
0.6304	40348.54	3.4600	3.4600	-1.5076	6.97	0.98	-0.750			
0.6349	40634.45	3.4570	3.4569	-1.4805	6.99	1.00	-0.750			
0.6393	40917.12	3.4540	3.4540	-1.4533	7.00	1.01	-0.750			
0.6436	41192.29	3.4510	3.4509	-1.4258	7.01	1.02	-0.750			
0.6478	41462.39	3.4480	3.4481	-1.3993	7.02	1.03	-0.750			
0.6520	41727.35	3.4450	3.4450	-1.3682	7.03	1.04	-0.750			
0.6561	41993.25	3.4420	3.4419	-1.3455	7.04	1.05	-0.750			
0.6601	42246.31	3.4390	3.4390	-1.3177	7.06	1.07	-0.750			
0.6640	42496.27	3.4360	3.4360	-1.2821	7.07	1.08	-0.750			
0.6678	42740.92	3.4330	3.4330	-1.2517	7.09	1.10	-0.750			
0.6715	42978.22	3.4300	3.4299	-1.2161	7.10	1.11	-0.750			
0.6751	43207.25	3.4270	3.4270	-1.1846	7.12	1.13	-0.750			
0.6786	43431.54	3.4240	3.4240	-1.1546	7.13	1.14	-0.750			
0.6820	43649.92	3.4210	3.4210	-1.1205	7.14	1.15	-0.750			
0.6853	43860.17	3.4180	3.4180	-1.0859	7.15	1.16	-0.750			
0.6886	44068.19	3.4150	3.4151	-1.0633	7.16	1.17	-0.750			
0.6917	44270.13	3.4120	3.4120	-1.0305	7.18	1.19	-0.750			
0.6948	44465.03	3.4090	3.4089	-1.0007	7.19	1.20	-0.750			
0.6977	44653.44	3.4060	3.4060	-0.9683	7.21	1.22	-0.750			
0.7005	44834.81	3.4030	3.4030	-0.9432	7.22	1.23	-0.750			
0.7033	45014.11	3.4000	3.4000	-0.9170	7.23	1.24	-0.750			
0.7060	45186.79	3.3970	3.3970	-0.8882	7.25	1.26	-0.750			
0.7087	45355.07	3.3940	3.3940	-0.8599	7.26	1.27	-0.750			
0.7112	45519.48	3.3910	3.3912	-0.8365	7.27	1.28	-0.750			
0.7137	45676.74	3.3880	3.3880	-0.8065	7.28	1.29	-0.750			
0.7161	45829.18	3.3850	3.3850	-0.7739	7.30	1.31	-0.750			
0.7184	45975.43	3.3820	3.3820	-0.7536	7.31	1.32	-0.750			
