Ah_balance (normalized)	Ah_balance (mAh)	Voltage - fit (V)	Voltage -  interpolate (V)	dQ/dV (1/V)	Temperature (°C)	Temperature - diff (°C)	Current (C)	R_DC 0ms (mOhm)	R_DC 50ms (mOhm)	R_DC 50 ms PEC (mOhm)
0.1766	11301.06	4.0820	4.0820	0.7278	7.67	1.68	0.750			
0.1788	11442.36	4.0790	4.0792	0.7455	7.67	1.68	0.750			
0.1811	11588.33	4.0760	4.0760	0.7606	7.67	1.68	0.750			
0.1834	11736.36	4.0730	4.0730	0.7684	7.66	1.67	0.750			
0.1857	11884.27	4.0700	4.0701	0.7664	7.66	1.67	0.750			
0.1880	12034.98	4.0670	4.0669	0.7681	7.66	1.67	0.750			
0.1903	12177.96	4.0640	4.0642	0.7753	7.65	1.66	0.750			
0.1926	12328.14	4.0610	4.0607	0.7719	7.65	1.66	0.750			
0.1950	12477.48	4.0580	4.0583	0.7753	7.64	1.65	0.750			
0.1973	12629.01	4.0550	4.0553	0.7704	7.64	1.65	0.750			
0.1997	12780.82	4.0520	4.0522	0.7676	7.63	1.64	0.750			
0.2020	12929.70	4.0490	4.0494	0.7608	7.63	1.64	0.750			
0.2041	13064.26	4.0460	4.0466	0.7562	7.62	1.63	0.750			
0.2064	13208.71	4.0430	4.0429	0.7365	7.62	1.63	0.750			
0.2086	13348.03	4.0400	4.0409	0.7499	7.61	1.62	0.750			
0.2108	13488.97	4.0370	4.0365	0.7702	7.61	1.62	0.750			
0.2131	13641.32	4.0340	4.0357	0.7999	7.60	1.61	0.750			
0.2156	13796.64	4.0310	4.0302	0.8172	7.59	1.60	0.750			
0.2181	13956.54	4.0280	4.0293	0.8479	7.59	1.60	0.750			
0.2207	14125.48	4.0250	4.0245	0.8582	7.58	1.59	0.750			
0.2234	14296.18	4.0220	4.0227	0.8510	7.58	1.59	0.750			
0.2260	14462.43	4.0190	4.0196	0.8574	7.58	1.59	0.750			
0.2285	14623.89	4.0160	4.0163	0.8495	7.57	1.58	0.750			
0.2310	14786.24	4.0130	4.0132	0.8452	7.56	1.57	0.750			
0.2336	14948.41	4.0100	4.0101	0.8287	7.55	1.56	0.750			
0.2360	15102.38	4.0070	4.0072	0.8169	7.54	1.55	0.750			
0.2385	15261.55	4.0040	4.0041	0.8350	7.53	1.54	0.750			
0.2409	15419.56	4.0010	4.0013	0.8354	7.52	1.53	0.750			
0.2434	15577.09	3.9980	3.9983	0.8329	7.51	1.52	0.750			
0.2459	15740.28	3.9950	3.9952	0.8329	7.50	1.51	0.750			
0.2485	15902.70	3.9920	3.9921	0.8483	7.50	1.51	0.750			
0.2511	16068.48	3.9890	3.9890	0.8590	7.50	1.51	0.750			
0.2536	16227.24	3.9860	3.9860	0.8496	7.49	1.50	0.750			
0.2561	16393.10	3.9830	3.9831	0.8621	7.49	1.50	0.750			
0.2588	16560.78	3.9800	3.9800	0.8676	7.48	1.49	0.750			
0.2614	16728.66	3.9770	3.9770	0.8769	7.47	1.48	0.750			
0.2640	16898.84	3.9740	3.9742	0.8753	7.46	1.47	0.750			
0.2667	17068.29	3.9710	3.9707	0.8804	7.45	1.46	0.750			
0.2693	17238.14	3.9680	3.9680	0.8784	7.44	1.45	0.750			
0.2720	17406.86	3.9650	3.9651	0.8791	7.44	1.45	0.750			
0.2746	17576.29	3.9620	3.9619	0.8845	7.43	1.44	0.750			
0.2772	17743.89	3.9590	3.9590	0.8943	7.43	1.44	0.750			
0.2799	17913.61	3.9560	3.9559	0.8935	7.42	1.43	0.750			
0.2827	18091.91	3.9530	3.9529	0.8865	7.41	1.42	0.750			
0.2853	18259.10	3.9500	3.9501	0.9049	7.41	1.42	0.750			
0.2880	18433.19	3.9470	3.9472	0.9162	7.40	1.41	0.750			
0.2908	18610.42	3.9440	3.9440	0.9224	7.39	1.40	0.750			
0.2935	18786.84	3.9410	3.9410	0.9238	7.39	1.40	0.750			
0.2963	18965.07	3.9380	3.9383	0.9195	7.38	1.39	0.750			
0.2991	19142.45	3.9350	3.9351	0.9368	7.37	1.38	0.750			
0.3019	19322.84	3.9320	3.9321	0.9440	7.36	1.37	0.750			
0.3047	19500.48	3.9290	3.9285	0.9413	7.35	1.36	0.750			
0.3076	19687.16	3.9260	3.9260	0.9403	7.35	1.36	0.750			
0.3105	19869.58	3.9230	3.9232	0.9559	7.34	1.35	0.750			
0.3135	20061.78	3.9200	3.9200	0.9481	7.34	1.35	0.750			
0.3161	20228.25	3.9170	3.9172	0.9465	7.33	1.34	0.750			
0.3189	20408.23	3.9140	3.9146	0.9617	7.32	1.33	0.750			
0.3217	20591.44	3.9110	3.9112	0.9821	7.32	1.33	0.750			
0.3247	20783.35	3.9080	3.9091	1.0100	7.31	1.32	0.750			
0.3279	20985.84	3.9050	3.9055	1.0328	7.30	1.31	0.750			
0.3310	21184.31	3.9020	3.9022	1.0303	7.29	1.30	0.750			
0.3344	21400.67	3.8990	3.8991	1.0584	7.27	1.28	0.750			
0.3374	21593.29	3.8960	3.8959	1.0402	7.27	1.28	0.750			
0.3405	21791.04	3.8930	3.8929	1.1362	7.26	1.27	0.750			
0.3440	22017.74	3.8900	3.8898	1.1855	7.24	1.25	0.750			
0.3478	22257.57	3.8870	3.8868	1.2311	7.23	1.24	0.750			
0.3516	22505.17	3.8840	3.8847	1.2350	7.22	1.23	0.750			
0.3555	22750.00	3.8810	3.8811	1.2119	7.21	1.22	0.750			
0.3591	22980.21	3.8780	3.8781	1.1932	7.20	1.21	0.750			
0.3624	23195.93	3.8750	3.8751	1.1379	7.19	1.20	0.750			
0.3659	23416.94	3.8720	3.8719	1.1476	7.17	1.18	0.750			
0.3693	23637.18	3.8690	3.8691	1.1567	7.16	1.17	0.750			
0.3728	23859.45	3.8660	3.8660	1.1778	7.15	1.16	0.750			
0.3764	24087.67	3.8630	3.8630	1.1938	7.14	1.15	0.750			
0.3800	24317.00	3.8600	3.8599	1.2018	7.13	1.14	0.750			
0.3836	24550.62	3.8570	3.8571	1.2288	7.12	1.13	0.750			
0.3873	24788.73	3.8540	3.8541	1.2486	7.11	1.12	0.750			
0.3912	25036.90	3.8510	3.8507	1.2513	7.09	1.10	0.750			
0.3952	25293.55	3.8480	3.8479	1.1995	7.08	1.09	0.750			
0.3985	25502.93	3.8450	3.8453	1.2793	7.07	1.08	0.750			
0.4023	25749.29	3.8420	3.8424	1.3243	7.06	1.07	0.750	0.404	0.902	
0.4063	26002.72	3.8390	3.8397	1.3786	7.04	1.05	0.750			
0.4105	26271.99	3.8360	3.8366	1.4182	7.02	1.03	0.750			
0.4150	26556.84	3.8330	3.8334	1.4612	7.00	1.01	0.750			
0.4198	26870.39	3.8300	3.8299	1.5556	6.98	0.99	0.750			
0.4241	27139.62	3.8270	3.8271	1.4569	6.97	0.98	0.750			
0.4285	27421.05	3.8240	3.8240	1.4855	6.95	0.96	0.750			
0.4329	27704.36	3.8210	3.8211	1.5147	6.94	0.95	0.750			
0.4375	27999.83	3.8180	3.8179	1.5505	6.92	0.93	0.750			
0.4422	28300.96	3.8150	3.8148	1.5661	6.91	0.92	0.750			
0.4469	28604.24	3.8120	3.8119	1.5923	6.89	0.90	0.750			
0.4518	28916.63	3.8090	3.8091	1.6370	6.88	0.89	0.750			
0.4566	29225.41	3.8060	3.8060	1.6267	6.86	0.87	0.750			
0.4616	29545.48	3.8030	3.8030	1.6593	6.84	0.85	0.750			
0.4666	29861.58	3.8000	3.7999	1.7188	6.81	0.82	0.750			
0.4718	30195.85	3.7970	3.7970	1.7906	6.80	0.81	0.750			
0.4772	30541.23	3.7940	3.7938	1.8500	6.78	0.79	0.750			
0.4830	30912.59	3.7910	3.7911	1.8922	6.75	0.76	0.750			
0.4888	31281.17	3.7880	3.7882	1.8650	6.73	0.74	0.750			
0.4944	31639.15	3.7850	3.7849	1.8525	6.70	0.71	0.750			
0.4997	31983.55	3.7820	3.7821	1.8259	6.67	0.68	0.750			
0.5052	32330.28	3.7790	3.7788	1.8318	6.65	0.66	0.750			
0.5107	32687.91	3.7760	3.7758	1.8791	6.63	0.64	0.750			
0.5165	33053.77	3.7730	3.7729	1.9043	6.61	0.62	0.750			
0.5222	33418.06	3.7700	3.7701	1.9007	6.59	0.60	0.750			
0.5280	33792.47	3.7670	3.7670	1.9380	6.56	0.57	0.750			
0.5338	34162.76	3.7640	3.7639	1.9458	6.53	0.54	0.750			
0.5396	34536.22	3.7610	3.7609	1.9415	6.50	0.51	0.750			
0.5455	34912.60	3.7580	3.7579	1.9957	6.47	0.48	0.750			
0.5516	35300.12	3.7550	3.7552	2.0292	6.44	0.45	0.750			
0.5577	35693.07	3.7520	3.7522	2.0589	6.42	0.43	0.750			
0.5639	36089.07	3.7490	3.7491	2.1136	6.39	0.40	0.750			
0.5704	36508.38	3.7460	3.7459	2.1985	6.37	0.38	0.750			
0.5771	36931.79	3.7430	3.7430	2.2238	6.34	0.35	0.750			
0.5839	37369.46	3.7400	3.7400	2.2609	6.31	0.32	0.750			
0.5906	37796.45	3.7370	3.7370	2.2989	6.28	0.29	0.750			
0.5975	38242.00	3.7340	3.7340	2.3694	6.25	0.26	0.750			
0.6049	38711.51	3.7310	3.7310	2.4389	6.22	0.23	0.750			
0.6124	39191.76	3.7280	3.7280	2.4621	6.19	0.20	0.750			
0.6197	39661.69	3.7250	3.7250	2.4114	6.16	0.17	0.750			
0.6270	40127.54	3.7220	3.7220	2.2986	6.14	0.15	0.750			
0.6337	40558.20	3.7190	3.7190	2.1529	6.12	0.13	0.750			
0.6400	40959.30	3.7160	3.7159	1.9786	6.10	0.11	0.750			
0.6457	41323.57	3.7130	3.7132	1.7957	6.08	0.09	0.750			
0.6507	41641.62	3.7100	3.7101	1.5867	6.06	0.07	0.750			
0.6552	41931.44	3.7070	3.7070	1.4323	6.05	0.06	0.750			
0.6592	42191.03	3.7040	3.7039	1.2982	6.04	0.05	0.750			
0.6627	42415.61	3.7010	3.7011	1.1811	6.03	0.04	0.750			
0.6661	42627.99	3.6980	3.6979	1.0901	6.02	0.03	0.750			
0.6692	42826.37	3.6950	3.6950	1.0228	6.02	0.03	0.750			
0.6721	43012.38	3.6920	3.6920	0.9732	6.01	0.02	0.750			
0.6749	43192.27	3.6890	3.6890	0.9320	6.01	0.02	0.750			
0.6776	43367.04	3.6860	3.6860	0.9021	6.00	0.01	0.750			
0.6802	43534.52	3.6830	3.6829	0.8687	6.00	0.01	0.750			
0.6828	43700.56	3.6800	3.6801	0.8427	6.00	0.01	0.750			
0.6853	43862.09	3.6770	3.6770	0.8153	6.00	0.01	0.750			
0.6877	44015.32	3.6740	3.6740	0.7825	5.99	0.00	0.750			
0.6900	44161.76	3.6710	3.6710	0.7485	5.99	0.00	0.750			
0.6922	44302.73	3.6680	3.6680	0.7148	5.99	0.00	0.750			
0.6943	44436.53	3.6650	3.6649	0.6795	5.99	0.00	0.750			
0.6963	44563.88	3.6620	3.6620	0.6461	5.99	0.00	0.750			
0.6982	44684.64	3.6590	3.6591	0.6135	5.99	0.00	0.750			
0.7000	44798.97	3.6560	3.6559	0.5821	5.99	0.00	0.750			
0.7017	44906.65	3.6530	3.6530	0.5485	5.99	0.00	0.750			
0.7033	45009.36	3.6500	3.6500	0.5185	5.99	0.00	0.750			
0.7048	45106.76	3.6470	3.6470	0.4892	5.99	0.00	0.750			
0.7062	45197.63	3.6440	3.6440	0.4572	5.99	0.00	0.750			
0.7075	45282.26	3.6410	3.6411	0.4254	5.99	0.00	0.750			
0.7088	45360.94	3.6380	3.6379	0.3923	5.99	0.00	0.750			
0.7099	45432.93	3.6350	3.6350	0.3593	5.99	0.00	0.750			
0.7109	45499.05	3.6320	3.6320	0.3251	5.99	0.00	0.750			
0.7119	45558.45	3.6290	3.6289	0.2880	5.99	0.00	0.750			
0.7127	45611.92	3.6260	3.6260	0.2492	5.99	0.00	0.750			
0.7134	45656.17	3.6230	3.6229	0.2086	5.99	0.00	0.750			
0.7140	45692.92	3.6200	3.6201	0.1676	5.99	0.00	0.750			
0.7144	45721.76	3.6170	3.6171	0.1246	5.99	0.00	0.750			
0.7147	45740.78	3.6140	3.6144	0.0804	5.99	0.00	0.750			
0.7149	45752.55	3.6110	3.6113	0.0356	5.99	0.00	0.750			
0.7149	45755.06	3.6080	3.6096	-0.0094	5.99	0.00	0.750			
