Ah_balance (normalized)	Ah_balance (mAh)	Voltage - fit (V)	Voltage -  interpolate (V)	dQ/dV (1/V)	Temperature (°C)	Temperature - diff (°C)	Current (C)	R_DC 0ms (mOhm)	R_DC 50ms (mOhm)	R_DC 50 ms PEC (mOhm)
0.1762	11279.93	4.0820	4.0821	0.7652	7.25	1.26	0.750			
0.1786	11428.56	4.0790	4.0791	0.7792	7.25	1.26	0.750			
0.1809	11579.71	4.0760	4.0759	0.7790	7.25	1.26	0.750			
0.1833	11728.55	4.0730	4.0730	0.7754	7.24	1.25	0.750			
0.1856	11875.55	4.0700	4.0702	0.7765	7.24	1.25	0.750			
0.1879	12025.07	4.0670	4.0666	0.7831	7.24	1.25	0.750			
0.1902	12174.94	4.0640	4.0641	0.7869	7.24	1.25	0.750			
0.1926	12328.24	4.0610	4.0611	0.7875	7.23	1.24	0.750			
0.1950	12480.54	4.0580	4.0580	0.7986	7.23	1.24	0.750			
0.1974	12635.56	4.0550	4.0551	0.8021	7.23	1.24	0.750			
0.1998	12787.71	4.0520	4.0519	0.7981	7.22	1.23	0.750			
0.2022	12938.28	4.0490	4.0491	0.8077	7.22	1.23	0.750			
0.2046	13095.49	4.0460	4.0459	0.8042	7.22	1.23	0.750			
0.2070	13250.82	4.0430	4.0430	0.8046	7.21	1.22	0.750			
0.2095	13407.52	4.0400	4.0400	0.8104	7.21	1.22	0.750			
0.2119	13560.53	4.0370	4.0374	0.8112	7.21	1.22	0.750			
0.2143	13717.45	4.0340	4.0339	0.8154	7.21	1.22	0.750			
0.2168	13875.33	4.0310	4.0309	0.8061	7.20	1.21	0.750			
0.2192	14026.90	4.0280	4.0280	0.8063	7.20	1.21	0.750			
0.2216	14183.23	4.0250	4.0252	0.8226	7.20	1.21	0.750			
0.2241	14340.16	4.0220	4.0220	0.8194	7.19	1.20	0.750			
0.2265	14495.54	4.0190	4.0190	0.8237	7.19	1.20	0.750			
0.2290	14655.57	4.0160	4.0161	0.8250	7.18	1.19	0.750			
0.2315	14816.38	4.0130	4.0131	0.8341	7.18	1.19	0.750			
0.2340	14978.36	4.0100	4.0100	0.8365	7.18	1.19	0.750			
0.2365	15137.27	4.0070	4.0069	0.8292	7.17	1.18	0.750			
0.2390	15296.15	4.0040	4.0042	0.8331	7.17	1.18	0.750			
0.2415	15457.39	4.0010	4.0009	0.8335	7.16	1.17	0.750			
0.2440	15617.24	3.9980	3.9980	0.8378	7.16	1.17	0.750			
0.2465	15777.98	3.9950	3.9950	0.8479	7.16	1.17	0.750			
0.2491	15940.33	3.9920	3.9920	0.8570	7.15	1.16	0.750			
0.2517	16106.30	3.9890	3.9890	0.8614	7.15	1.16	0.750			
0.2543	16273.73	3.9860	3.9860	0.8630	7.14	1.15	0.750			
0.2569	16439.22	3.9830	3.9831	0.8647	7.13	1.14	0.750			
0.2595	16607.25	3.9800	3.9800	0.8688	7.13	1.14	0.750			
0.2621	16771.95	3.9770	3.9769	0.8709	7.12	1.13	0.750			
0.2647	16938.26	3.9740	3.9740	0.8738	7.12	1.13	0.750			
0.2673	17106.87	3.9710	3.9710	0.8726	7.11	1.12	0.750			
0.2699	17275.15	3.9680	3.9681	0.8794	7.10	1.11	0.750			
0.2726	17445.19	3.9650	3.9650	0.8892	7.10	1.11	0.750			
0.2752	17614.90	3.9620	3.9618	0.8908	7.09	1.10	0.750			
0.2779	17788.32	3.9590	3.9589	0.8872	7.09	1.10	0.750			
0.2806	17957.96	3.9560	3.9561	0.8884	7.08	1.09	0.750			
0.2833	18128.38	3.9530	3.9531	0.9002	7.08	1.09	0.750			
0.2860	18302.12	3.9500	3.9500	0.9089	7.07	1.08	0.750			
0.2887	18473.74	3.9470	3.9468	0.9136	7.07	1.08	0.750			
0.2914	18652.23	3.9440	3.9440	0.9138	7.06	1.07	0.750			
0.2942	18829.60	3.9410	3.9411	0.9261	7.06	1.07	0.750			
0.2970	19009.05	3.9380	3.9381	0.9336	7.06	1.07	0.750			
0.2998	19187.08	3.9350	3.9349	0.9380	7.05	1.06	0.750			
0.3026	19367.63	3.9320	3.9320	0.9418	7.04	1.05	0.750			
0.3054	19547.65	3.9290	3.9290	0.9521	7.03	1.04	0.750			
0.3083	19732.76	3.9260	3.9261	0.9588	7.03	1.04	0.750			
0.3112	19919.31	3.9230	3.9230	0.9665	7.02	1.03	0.750			
0.3141	20105.42	3.9200	3.9200	0.9738	7.01	1.02	0.750			
0.3171	20293.33	3.9170	3.9170	0.9713	7.00	1.01	0.750			
0.3200	20477.67	3.9140	3.9140	0.9791	7.00	1.01	0.750			
0.3229	20665.82	3.9110	3.9111	0.9951	6.99	1.00	0.750			
0.3259	20855.41	3.9080	3.9078	1.0041	6.99	1.00	0.750			
0.3289	21052.19	3.9050	3.9050	1.0135	6.98	0.99	0.750			
0.3320	21248.12	3.9020	3.9021	1.0242	6.97	0.98	0.750			
0.3351	21446.91	3.8990	3.8991	1.0372	6.97	0.98	0.750			
0.3383	21648.73	3.8960	3.8960	1.0406	6.96	0.97	0.750			
0.3414	21847.19	3.8930	3.8930	1.0442	6.95	0.96	0.750			
0.3445	22047.09	3.8900	3.8900	1.0609	6.94	0.95	0.750			
0.3477	22252.59	3.8870	3.8872	1.0764	6.94	0.95	0.750			
0.3510	22463.47	3.8840	3.8837	1.0770	6.93	0.94	0.750			
0.3542	22669.56	3.8810	3.8810	1.0950	6.92	0.93	0.750			
0.3575	22880.46	3.8780	3.8782	1.1083	6.91	0.92	0.750			
0.3609	23095.26	3.8750	3.8751	1.1247	6.90	0.91	0.750			
0.3643	23314.67	3.8720	3.8721	1.1292	6.89	0.90	0.750			
0.3677	23530.36	3.8690	3.8691	1.1550	6.88	0.89	0.750			
0.3712	23754.67	3.8660	3.8661	1.1728	6.86	0.87	0.750			
0.3748	23984.77	3.8630	3.8628	1.1812	6.85	0.86	0.750			
0.3783	24211.53	3.8600	3.8602	1.1955	6.85	0.86	0.750			
0.3819	24442.85	3.8570	3.8571	1.2081	6.84	0.85	0.750			
0.3856	24675.69	3.8540	3.8540	1.2217	6.83	0.84	0.750			
0.3892	24907.77	3.8510	3.8511	1.2316	6.83	0.84	0.750			
0.3929	25143.81	3.8480	3.8481	1.2587	6.81	0.82	0.750			
0.3968	25393.69	3.8450	3.8450	1.2790	6.80	0.81	0.750			
0.4006	25637.37	3.8420	3.8417	1.3337	6.79	0.80	0.750			
0.4046	25891.66	3.8390	3.8391	1.3478	6.78	0.79	0.750			
0.4087	26155.13	3.8360	3.8361	1.3926	6.78	0.79	0.750			
0.4130	26430.74	3.8330	3.8322	1.4105	6.77	0.78	0.750	0.369	0.880	
0.4172	26698.83	3.8300	3.8302	1.4243	6.75	0.76	0.750			
0.4216	26982.90	3.8270	3.8272	1.4462	6.73	0.74	0.750			
0.4259	27256.35	3.8240	3.8239	1.4586	6.71	0.72	0.750			
0.4304	27547.47	3.8210	3.8208	1.4871	6.70	0.71	0.750			
0.4347	27819.58	3.8180	3.8181	1.5002	6.70	0.71	0.750			
0.4392	28110.77	3.8150	3.8147	1.5491	6.69	0.70	0.750			
0.4440	28416.24	3.8120	3.8120	1.5661	6.67	0.68	0.750			
0.4487	28714.88	3.8090	3.8092	1.6007	6.66	0.67	0.750			
0.4536	29028.30	3.8060	3.8058	1.6391	6.64	0.65	0.750			
0.4584	29339.09	3.8030	3.8031	1.6931	6.62	0.63	0.750			
0.4636	29669.49	3.8000	3.8001	1.7224	6.61	0.62	0.750			
0.4690	30013.91	3.7970	3.7970	1.7721	6.59	0.60	0.750			
0.4743	30353.05	3.7940	3.7940	1.7691	6.57	0.58	0.750			
0.4797	30698.95	3.7910	3.7913	1.7992	6.56	0.57	0.750			
0.4851	31044.67	3.7880	3.7883	1.8555	6.54	0.55	0.750			
0.4907	31403.19	3.7850	3.7852	1.8845	6.52	0.53	0.750			
0.4966	31783.75	3.7820	3.7821	1.9176	6.50	0.51	0.750			
0.5022	32142.91	3.7790	3.7788	1.9196	6.48	0.49	0.750			
0.5079	32506.36	3.7760	3.7755	1.9338	6.47	0.48	0.750			
0.5137	32877.82	3.7730	3.7729	1.9704	6.45	0.46	0.750			
0.5197	33262.88	3.7700	3.7697	2.0572	6.42	0.43	0.750			
0.5260	33664.52	3.7670	3.7668	2.0198	6.39	0.40	0.750			
0.5321	34055.49	3.7640	3.7639	2.0636	6.37	0.38	0.750			
0.5384	34460.77	3.7610	3.7608	2.0534	6.35	0.36	0.750			
0.5446	34853.17	3.7580	3.7579	2.0769	6.34	0.35	0.750			
0.5510	35261.03	3.7550	3.7547	2.1337	6.33	0.34	0.750			
0.5578	35698.98	3.7520	3.7513	2.1534	6.31	0.32	0.750			
0.5641	36102.75	3.7490	3.7496	2.1051	6.29	0.30	0.750			
0.5705	36511.94	3.7460	3.7463	2.1493	6.26	0.27	0.750			
0.5771	36936.44	3.7430	3.7428	2.2753	6.24	0.25	0.750			
0.5841	37382.33	3.7400	3.7399	2.6009	6.22	0.23	0.750			
0.5924	37914.12	3.7370	3.7365	2.9208	6.20	0.21	0.750			
0.6017	38508.00	3.7340	3.7341	2.8579	6.17	0.18	0.750			
0.6104	39063.87	3.7310	3.7309	2.8452	6.14	0.15	0.750			
0.6178	39540.85	3.7280	3.7280	2.6422	6.11	0.12	0.750			
0.6259	40058.60	3.7250	3.7248	2.6471	6.09	0.10	0.750			
0.6338	40564.27	3.7220	3.7223	2.6192	6.06	0.07	0.750			
0.6416	41063.58	3.7190	3.7191	2.5468	6.04	0.05	0.750			
0.6490	41538.58	3.7160	3.7162	2.4106	6.03	0.04	0.750			
0.6562	41999.35	3.7130	3.7131	2.2562	6.01	0.02	0.750			
0.6628	42421.12	3.7100	3.7098	2.0442	5.99	0.00	0.750			
0.6687	42794.46	3.7070	3.7070	1.8407	5.98	-0.01	0.750			
0.6737	43117.44	3.7040	3.7040	1.6100	5.97	-0.02	0.750			
0.6782	43404.58	3.7010	3.7010	1.4216	5.97	-0.02	0.750			
0.6819	43644.27	3.6980	3.6980	1.2563	5.97	-0.02	0.750			
0.6855	43868.85	3.6950	3.6949	1.1403	5.97	-0.02	0.750			
0.6885	44063.66	3.6920	3.6920	1.0398	5.97	-0.02	0.750			
0.6916	44259.93	3.6890	3.6890	0.9785	5.96	-0.03	0.750			
0.6943	44436.55	3.6860	3.6860	0.9247	5.96	-0.03	0.750			
0.6970	44607.31	3.6830	3.6831	0.8886	5.96	-0.03	0.750			
0.6996	44771.73	3.6800	3.6799	0.8528	5.95	-0.04	0.750			
0.7021	44932.24	3.6770	3.6770	0.8194	5.95	-0.04	0.750			
0.7045	45088.25	3.6740	3.6741	0.7907	5.96	-0.03	0.750			
0.7068	45238.36	3.6710	3.6710	0.7473	5.96	-0.03	0.750			
0.7091	45381.02	3.6680	3.6680	0.7116	5.96	-0.03	0.750			
0.7111	45511.51	3.6650	3.6651	0.6644	5.97	-0.02	0.750			
0.7130	45634.03	3.6620	3.6617	0.6235	5.97	-0.02	0.750			
0.7148	45748.79	3.6590	3.6591	0.5838	5.97	-0.02	0.750			
0.7165	45858.01	3.6560	3.6560	0.5427	5.98	-0.01	0.750			
0.7181	45959.58	3.6530	3.6530	0.5015	5.98	-0.01	0.750			
0.7196	46051.70	3.6500	3.6501	0.4608	5.98	-0.01	0.750			
0.7209	46135.69	3.6470	3.6470	0.4190	5.98	-0.01	0.750			
0.7221	46212.03	3.6440	3.6439	0.3812	5.98	-0.01	0.750			
0.7231	46280.74	3.6410	3.6410	0.3435	5.99	-0.00	0.750			
0.7241	46342.49	3.6380	3.6380	0.3065	5.99	-0.00	0.750			
0.7250	46398.58	3.6350	3.6350	0.2728	5.99	-0.00	0.750			
0.7258	46448.39	3.6320	3.6319	0.2356	5.99	0.00	0.750			
0.7264	46489.57	3.6290	3.6291	0.1965	5.99	0.00	0.750			
0.7270	46525.06	3.6260	3.6260	0.1606	5.99	0.00	0.750			
0.7274	46551.98	3.6230	3.6232	0.1207	5.99	0.00	0.750			
0.7277	46571.80	3.6200	3.6206	0.0805	5.99	0.00	0.750			
0.7279	46583.49	3.6170	3.6183	0.0392	5.99	0.00	0.750			
0.7279	46587.05	3.6140	3.6170	-0.0020	5.99	0.00	0.750			
