Ah_balance (normalized)	Ah_balance (mAh)	Voltage - fit (V)	Voltage -  interpolate (V)	dQ/dV (1/V)	Temperature (°C)	Temperature - diff (°C)	Current (C)	R_DC 0ms (mOhm)	R_DC 50ms (mOhm)	R_DC 50 ms PEC (mOhm)
0.1808	11573.39	4.0800	4.0797	0.7829	7.57	1.59	0.750			
0.1832	11725.00	4.0770	4.0770	0.7872	7.57	1.59	0.750			
0.1856	11875.44	4.0740	4.0740	0.7816	7.56	1.58	0.750			
0.1879	12024.12	4.0710	4.0711	0.7818	7.56	1.58	0.750			
0.1902	12175.41	4.0680	4.0679	0.7827	7.56	1.58	0.750			
0.1925	12322.59	4.0650	4.0649	0.7846	7.55	1.57	0.750			
0.1949	12473.47	4.0620	4.0621	0.7878	7.55	1.57	0.750			
0.1973	12627.57	4.0590	4.0589	0.7893	7.54	1.56	0.750			
0.1997	12779.25	4.0560	4.0559	0.7926	7.54	1.56	0.750			
0.2021	12931.46	4.0530	4.0531	0.7928	7.53	1.55	0.750			
0.2044	13081.89	4.0500	4.0501	0.7981	7.52	1.54	0.750			
0.2068	13235.88	4.0470	4.0469	0.8031	7.52	1.54	0.750			
0.2092	13391.50	4.0440	4.0439	0.7998	7.51	1.53	0.750			
0.2117	13546.02	4.0410	4.0410	0.8035	7.51	1.53	0.750			
0.2141	13700.46	4.0380	4.0381	0.8037	7.50	1.52	0.750			
0.2165	13854.41	4.0350	4.0351	0.8032	7.50	1.52	0.750			
0.2189	14008.39	4.0320	4.0318	0.8027	7.49	1.51	0.750			
0.2213	14160.76	4.0290	4.0290	0.8064	7.49	1.51	0.750			
0.2237	14315.54	4.0260	4.0260	0.8107	7.48	1.50	0.750			
0.2261	14467.79	4.0230	4.0230	0.8335	7.48	1.50	0.750			
0.2286	14630.54	4.0200	4.0200	0.8374	7.47	1.49	0.750			
0.2312	14794.71	4.0170	4.0167	0.8363	7.47	1.49	0.750			
0.2337	14957.75	4.0140	4.0140	0.8388	7.47	1.49	0.750			
0.2363	15120.61	4.0110	4.0116	0.8324	7.46	1.48	0.750			
0.2387	15279.21	4.0080	4.0079	0.8296	7.46	1.48	0.750			
0.2412	15435.46	4.0050	4.0050	0.8231	7.45	1.47	0.750			
0.2436	15590.77	4.0020	4.0018	0.8269	7.45	1.47	0.750			
0.2461	15751.70	3.9990	3.9989	0.8412	7.44	1.46	0.750			
0.2486	15912.75	3.9960	3.9960	0.8446	7.43	1.45	0.750			
0.2512	16075.36	3.9930	3.9931	0.8531	7.43	1.45	0.750			
0.2537	16239.96	3.9900	3.9900	0.8587	7.42	1.44	0.750			
0.2563	16406.14	3.9870	3.9870	0.8639	7.41	1.43	0.750			
0.2589	16572.56	3.9840	3.9841	0.8672	7.41	1.43	0.750			
0.2616	16740.54	3.9810	3.9811	0.8664	7.40	1.42	0.750			
0.2642	16908.13	3.9780	3.9780	0.8705	7.40	1.42	0.750			
0.2668	17073.56	3.9750	3.9751	0.8663	7.39	1.41	0.750			
0.2694	17239.01	3.9720	3.9720	0.8757	7.39	1.41	0.750			
0.2720	17409.99	3.9690	3.9689	0.8716	7.38	1.40	0.750			
0.2746	17575.90	3.9660	3.9660	0.8801	7.37	1.39	0.750			
0.2773	17744.91	3.9630	3.9631	0.8874	7.36	1.38	0.750			
0.2799	17916.62	3.9600	3.9601	0.8986	7.35	1.37	0.750			
0.2826	18089.40	3.9570	3.9570	0.9019	7.35	1.37	0.750			
0.2854	18263.17	3.9540	3.9541	0.9021	7.34	1.36	0.750			
0.2881	18435.44	3.9510	3.9511	0.9100	7.34	1.36	0.750			
0.2909	18614.93	3.9480	3.9480	0.9222	7.33	1.35	0.750			
0.2936	18788.48	3.9450	3.9447	0.9211	7.33	1.35	0.750			
0.2963	18966.10	3.9420	3.9421	0.9239	7.32	1.34	0.750			
0.2991	19143.65	3.9390	3.9391	0.9319	7.31	1.33	0.750			
0.3020	19325.75	3.9360	3.9360	0.9400	7.30	1.32	0.750			
0.3048	19504.40	3.9330	3.9330	0.9418	7.29	1.31	0.750			
0.3076	19688.50	3.9300	3.9300	0.9416	7.29	1.31	0.750			
0.3105	19869.18	3.9270	3.9270	0.9533	7.28	1.30	0.750			
0.3133	20051.87	3.9240	3.9240	0.9608	7.28	1.30	0.750			
0.3162	20236.93	3.9210	3.9211	0.9739	7.27	1.29	0.750			
0.3191	20423.20	3.9180	3.9179	0.9827	7.27	1.29	0.750			
0.3221	20613.87	3.9150	3.9151	0.9879	7.26	1.28	0.750			
0.3251	20803.23	3.9120	3.9121	0.9962	7.25	1.27	0.750			
0.3281	20995.70	3.9090	3.9091	1.0127	7.24	1.26	0.750			
0.3311	21191.18	3.9060	3.9057	1.0154	7.23	1.25	0.750			
0.3342	21388.25	3.9030	3.9031	1.0145	7.22	1.24	0.750			
0.3372	21582.31	3.9000	3.9001	1.0254	7.21	1.23	0.750			
0.3403	21779.96	3.8970	3.8972	1.0413	7.20	1.22	0.750			
0.3434	21980.53	3.8940	3.8935	1.0498	7.19	1.21	0.750			
0.3466	22182.14	3.8910	3.8911	1.0530	7.19	1.21	0.750			
0.3497	22383.46	3.8880	3.8882	1.0726	7.18	1.20	0.750			
0.3530	22594.04	3.8850	3.8851	1.0956	7.17	1.19	0.750			
0.3564	22808.21	3.8820	3.8817	1.1021	7.17	1.19	0.750			
0.3596	23014.50	3.8790	3.8790	1.1108	7.16	1.18	0.750			
0.3630	23228.88	3.8760	3.8762	1.1400	7.15	1.17	0.750			
0.3664	23451.48	3.8730	3.8729	1.1662	7.14	1.16	0.750			
0.3700	23679.22	3.8700	3.8700	1.1660	7.12	1.14	0.750			
0.3735	23904.85	3.8670	3.8672	1.1796	7.11	1.13	0.750			
0.3771	24133.67	3.8640	3.8641	1.1982	7.09	1.11	0.750			
0.3807	24366.19	3.8610	3.8606	1.2054	7.07	1.09	0.750			
0.3843	24593.97	3.8580	3.8580	1.2094	7.06	1.08	0.750			
0.3879	24824.04	3.8550	3.8551	1.2308	7.06	1.08	0.750			
0.3917	25070.13	3.8520	3.8519	1.2473	7.05	1.07	0.750			
0.3955	25314.68	3.8490	3.8490	1.2729	7.04	1.06	0.750			
0.3992	25549.43	3.8460	3.8461	1.3031	7.03	1.05	0.750			
0.4032	25806.37	3.8430	3.8431	1.3309	7.02	1.04	0.750			
0.4073	26064.63	3.8400	3.8397	1.3737	7.01	1.03	0.750			
0.4114	26331.06	3.8370	3.8374	1.4070	6.99	1.01	0.750	0.408	0.916	
0.4158	26608.46	3.8340	3.8342	1.4255	6.97	0.99	0.750			
0.4202	26892.98	3.8310	3.8310	1.4649	6.95	0.97	0.750			
0.4245	27167.28	3.8280	3.8281	1.4879	6.94	0.96	0.750			
0.4290	27456.45	3.8250	3.8250	1.4851	6.92	0.94	0.750			
0.4336	27748.01	3.8220	3.8221	1.5342	6.90	0.92	0.750			
0.4381	28040.64	3.8190	3.8193	1.5363	6.88	0.90	0.750			
0.4429	28342.81	3.8160	3.8156	1.5397	6.86	0.88	0.750			
0.4474	28635.25	3.8130	3.8132	1.5180	6.85	0.87	0.750			
0.4518	28913.26	3.8100	3.8103	1.5354	6.84	0.86	0.750			
0.4564	29211.56	3.8070	3.8076	1.6127	6.83	0.85	0.750			
0.4613	29525.31	3.8040	3.8041	1.6807	6.80	0.82	0.750			
0.4666	29861.82	3.8010	3.8015	1.7544	6.78	0.80	0.750			
0.4722	30223.44	3.7980	3.7983	1.8268	6.75	0.77	0.750			
0.4776	30563.54	3.7950	3.7951	1.8012	6.73	0.75	0.750			
0.4829	30904.81	3.7920	3.7920	1.8338	6.70	0.72	0.750			
0.4884	31259.76	3.7890	3.7890	1.8565	6.69	0.71	0.750			
0.4941	31622.80	3.7860	3.7857	1.8598	6.67	0.69	0.750			
0.4997	31983.40	3.7830	3.7829	1.8735	6.65	0.67	0.750			
0.5052	32334.67	3.7800	3.7800	1.8990	6.63	0.65	0.750			
0.5111	32710.66	3.7770	3.7770	1.9198	6.61	0.63	0.750			
0.5170	33085.10	3.7740	3.7740	1.9852	6.58	0.60	0.750			
0.5230	33473.29	3.7710	3.7711	2.0109	6.55	0.57	0.750			
0.5291	33859.90	3.7680	3.7679	2.0201	6.52	0.54	0.750			
0.5351	34247.58	3.7650	3.7649	2.0363	6.49	0.51	0.750			
0.5413	34641.89	3.7620	3.7620	2.0923	6.47	0.49	0.750			
0.5475	35042.42	3.7590	3.7590	2.0936	6.44	0.46	0.750			
0.5539	35448.82	3.7560	3.7561	2.1468	6.42	0.44	0.750			
0.5605	35871.22	3.7530	3.7529	2.1831	6.39	0.41	0.750			
0.5670	36290.71	3.7500	3.7501	2.2165	6.36	0.38	0.750			
0.5738	36723.05	3.7470	3.7469	2.2787	6.32	0.34	0.750			
0.5807	37162.93	3.7440	3.7441	2.2964	6.29	0.31	0.750			
0.5876	37607.94	3.7410	3.7410	2.3552	6.26	0.28	0.750			
0.5948	38064.13	3.7380	3.7379	2.4122	6.23	0.25	0.750			
0.6021	38534.01	3.7350	3.7350	2.5186	6.20	0.22	0.750			
0.6099	39031.47	3.7320	3.7319	2.5857	6.17	0.19	0.750			
0.6178	39540.07	3.7290	3.7290	2.5604	6.14	0.16	0.750			
0.6253	40021.38	3.7260	3.7260	2.5441	6.12	0.14	0.750			
0.6328	40499.18	3.7230	3.7229	2.4930	6.09	0.11	0.750			
0.6404	40983.26	3.7200	3.7204	2.4013	6.06	0.08	0.750			
0.6475	41443.08	3.7170	3.7168	2.2748	6.04	0.06	0.750			
0.6542	41867.23	3.7140	3.7138	2.0934	6.03	0.05	0.750			
0.6602	42252.68	3.7110	3.7114	1.9068	6.02	0.04	0.750			
0.6655	42595.18	3.7080	3.7082	1.6775	6.01	0.03	0.750			
0.6703	42901.13	3.7050	3.7054	1.5244	6.01	0.03	0.750			
0.6745	43165.61	3.7020	3.7021	1.3459	6.00	0.02	0.750			
0.6781	43401.23	3.6990	3.6990	1.2224	5.99	0.01	0.750			
0.6815	43616.32	3.6960	3.6958	1.1088	5.99	0.01	0.750			
0.6846	43813.62	3.6930	3.6931	1.0257	5.98	0.00	0.750			
0.6875	44000.53	3.6900	3.6900	0.9639	5.98	-0.00	0.750			
0.6903	44179.47	3.6870	3.6871	0.9180	5.98	-0.00	0.750			
0.6929	44347.25	3.6840	3.6838	0.8756	5.97	-0.01	0.750			
0.6955	44510.35	3.6810	3.6810	0.8435	5.97	-0.01	0.750			
0.6980	44671.99	3.6780	3.6780	0.8095	5.97	-0.01	0.750			
0.7004	44826.01	3.6750	3.6750	0.7820	5.97	-0.01	0.750			
0.7027	44972.89	3.6720	3.6720	0.7441	5.97	-0.01	0.750			
0.7049	45111.27	3.6690	3.6690	0.7066	5.97	-0.01	0.750			
0.7069	45243.97	3.6660	3.6661	0.6669	5.97	-0.01	0.750			
0.7089	45368.37	3.6630	3.6629	0.6263	5.97	-0.01	0.750			
0.7107	45484.87	3.6600	3.6601	0.5863	5.97	-0.01	0.750			
0.7124	45594.24	3.6570	3.6571	0.5482	5.98	-0.00	0.750			
0.7140	45694.45	3.6540	3.6539	0.5012	5.98	-0.00	0.750			
0.7154	45786.15	3.6510	3.6511	0.4664	5.98	-0.00	0.750			
0.7167	45871.63	3.6480	3.6480	0.4287	5.98	-0.00	0.750			
0.7180	45951.21	3.6450	3.6450	0.3954	5.98	-0.00	0.750			
0.7191	46023.47	3.6420	3.6421	0.3594	5.98	0.00	0.750			
0.7201	46088.85	3.6390	3.6391	0.3242	5.98	0.00	0.750			
0.7211	46147.86	3.6360	3.6360	0.2901	5.98	0.00	0.750			
0.7219	46201.61	3.6330	3.6329	0.2554	5.98	0.00	0.750			
0.7226	46245.76	3.6300	3.6299	0.2138	5.98	0.00	0.750			
0.7232	46284.93	3.6270	3.6270	0.1799	5.98	0.00	0.750			
0.7237	46315.50	3.6240	3.6242	0.1405	5.98	0.00	0.750			
0.7241	46340.03	3.6210	3.6216	0.1011	5.98	0.00	0.750			
0.7243	46356.49	3.6180	3.6187	0.0568	5.98	0.00	0.750			
0.7244	46363.11	3.6150	3.6172	0.0121	5.98	0.00	0.750			
