Ah_balance (normalized)	Ah_balance (mAh)	Voltage - fit (V)	Voltage -  interpolate (V)	dQ/dV (1/V)	Temperature (°C)	Temperature - diff (°C)	Current (C)	R_DC 0ms (mOhm)	R_DC 50ms (mOhm)	R_DC 50 ms PEC (mOhm)
0.1777	11374.03	4.0830	4.0830	0.7682	7.57	1.58	0.750			
0.1800	11520.72	4.0800	4.0800	0.7626	7.56	1.57	0.750			
0.1823	11665.40	4.0770	4.0770	0.7592	7.56	1.57	0.750			
0.1845	11810.60	4.0740	4.0740	0.7614	7.56	1.57	0.750			
0.1868	11956.19	4.0710	4.0710	0.7646	7.55	1.56	0.750			
0.1891	12103.81	4.0680	4.0680	0.7702	7.55	1.56	0.750			
0.1914	12252.43	4.0650	4.0650	0.7726	7.55	1.56	0.750			
0.1938	12401.41	4.0620	4.0621	0.7783	7.54	1.55	0.750			
0.1961	12551.16	4.0590	4.0591	0.7816	7.54	1.55	0.750			
0.1985	12701.51	4.0560	4.0560	0.7839	7.53	1.54	0.750			
0.2008	12853.17	4.0530	4.0528	0.7867	7.53	1.54	0.750			
0.2032	13003.96	4.0500	4.0501	0.7861	7.53	1.54	0.750			
0.2056	13156.71	4.0470	4.0470	0.7817	7.52	1.53	0.750			
0.2079	13306.05	4.0440	4.0441	0.7903	7.51	1.52	0.750			
0.2103	13456.58	4.0410	4.0410	0.7930	7.51	1.52	0.750			
0.2126	13608.12	4.0380	4.0380	0.7963	7.50	1.51	0.750			
0.2150	13762.04	4.0350	4.0351	0.8023	7.50	1.51	0.750			
0.2175	13917.83	4.0320	4.0321	0.8087	7.49	1.50	0.750			
0.2199	14073.51	4.0290	4.0290	0.8144	7.49	1.50	0.750			
0.2224	14232.18	4.0260	4.0260	0.8177	7.48	1.49	0.750			
0.2248	14386.37	4.0230	4.0230	0.8156	7.47	1.48	0.750			
0.2273	14544.17	4.0200	4.0200	0.8211	7.47	1.48	0.750			
0.2298	14704.35	4.0170	4.0170	0.8192	7.46	1.47	0.750			
0.2322	14860.03	4.0140	4.0141	0.8231	7.46	1.47	0.750			
0.2347	15018.25	4.0110	4.0110	0.8272	7.46	1.47	0.750			
0.2371	15176.24	4.0080	4.0080	0.8313	7.45	1.46	0.750			
0.2396	15335.94	4.0050	4.0050	0.8381	7.45	1.46	0.750			
0.2422	15498.50	4.0020	4.0020	0.8363	7.44	1.45	0.750			
0.2447	15661.04	3.9990	3.9990	0.8407	7.44	1.45	0.750			
0.2472	15821.93	3.9960	3.9961	0.8453	7.44	1.45	0.750			
0.2497	15982.81	3.9930	3.9931	0.8463	7.43	1.44	0.750			
0.2523	16145.27	3.9900	3.9900	0.8516	7.43	1.44	0.750			
0.2548	16309.74	3.9870	3.9870	0.8548	7.42	1.43	0.750			
0.2574	16473.81	3.9840	3.9841	0.8625	7.42	1.43	0.750			
0.2600	16641.52	3.9810	3.9810	0.8691	7.41	1.42	0.750			
0.2626	16809.50	3.9780	3.9780	0.8712	7.40	1.41	0.750			
0.2653	16976.30	3.9750	3.9750	0.8754	7.40	1.41	0.750			
0.2679	17145.16	3.9720	3.9721	0.8767	7.39	1.40	0.750			
0.2705	17313.34	3.9690	3.9690	0.8849	7.38	1.39	0.750			
0.2732	17485.22	3.9660	3.9660	0.8889	7.38	1.39	0.750			
0.2759	17655.17	3.9630	3.9629	0.8880	7.37	1.38	0.750			
0.2786	17827.47	3.9600	3.9600	0.8909	7.36	1.37	0.750			
0.2812	17997.80	3.9570	3.9571	0.8936	7.35	1.36	0.750			
0.2839	18167.88	3.9540	3.9540	0.9005	7.35	1.36	0.750			
0.2866	18341.64	3.9510	3.9510	0.9098	7.34	1.35	0.750			
0.2893	18515.77	3.9480	3.9479	0.9099	7.33	1.34	0.750			
0.2921	18693.70	3.9450	3.9451	0.9146	7.32	1.33	0.750			
0.2948	18869.95	3.9420	3.9421	0.9252	7.32	1.33	0.750			
0.2976	19047.52	3.9390	3.9390	0.9322	7.32	1.33	0.750			
0.3004	19225.44	3.9360	3.9359	0.9370	7.31	1.32	0.750			
0.3032	19406.41	3.9330	3.9331	0.9444	7.31	1.32	0.750			
0.3061	19588.75	3.9300	3.9300	0.9584	7.30	1.31	0.750			
0.3090	19775.88	3.9270	3.9270	0.9667	7.29	1.30	0.750			
0.3119	19963.39	3.9240	3.9239	0.9730	7.28	1.29	0.750			
0.3148	20149.52	3.9210	3.9211	0.9734	7.28	1.29	0.750			
0.3178	20336.85	3.9180	3.9180	0.9830	7.27	1.28	0.750			
0.3207	20524.83	3.9150	3.9150	0.9915	7.26	1.27	0.750			
0.3237	20715.98	3.9120	3.9120	1.0008	7.25	1.26	0.750			
0.3267	20909.04	3.9090	3.9090	1.0069	7.24	1.25	0.750			
0.3297	21103.80	3.9060	3.9061	1.0190	7.23	1.24	0.750			
0.3328	21299.80	3.9030	3.9031	1.0331	7.22	1.23	0.750			
0.3359	21499.91	3.9000	3.9000	1.0417	7.22	1.23	0.750			
0.3391	21700.32	3.8970	3.8969	1.0467	7.21	1.22	0.750			
0.3422	21902.58	3.8940	3.8941	1.0590	7.20	1.21	0.750			
0.3454	22107.22	3.8910	3.8911	1.0722	7.19	1.20	0.750			
0.3487	22314.52	3.8880	3.8880	1.0832	7.18	1.19	0.750			
0.3519	22523.62	3.8850	3.8849	1.0860	7.17	1.18	0.750			
0.3552	22731.81	3.8820	3.8820	1.1024	7.16	1.17	0.750			
0.3585	22945.32	3.8790	3.8791	1.1209	7.15	1.16	0.750			
0.3619	23161.85	3.8760	3.8759	1.1328	7.14	1.15	0.750			
0.3653	23380.68	3.8730	3.8731	1.1412	7.13	1.14	0.750			
0.3687	23599.47	3.8700	3.8701	1.1565	7.11	1.12	0.750			
0.3722	23822.33	3.8670	3.8671	1.1779	7.10	1.11	0.750			
0.3758	24051.77	3.8640	3.8637	1.1939	7.09	1.10	0.750			
0.3794	24281.47	3.8610	3.8610	1.2103	7.08	1.09	0.750			
0.3831	24515.48	3.8580	3.8581	1.2300	7.07	1.08	0.750			
0.3868	24758.22	3.8550	3.8550	1.2498	7.06	1.07	0.750			
0.3907	25002.35	3.8520	3.8520	1.2620	7.04	1.05	0.750			
0.3943	25236.62	3.8490	3.8490	1.2873	7.03	1.04	0.750			
0.3982	25485.14	3.8460	3.8461	1.3255	7.01	1.02	0.750			
0.4023	25745.23	3.8430	3.8429	1.3595	7.00	1.01	0.750	0.396	0.899	
0.4064	26009.73	3.8400	3.8402	1.3864	6.98	0.99	0.750			
0.4107	26284.20	3.8370	3.8371	1.4093	6.96	0.97	0.750			
0.4150	26561.11	3.8340	3.8340	1.4385	6.94	0.95	0.750			
0.4193	26835.88	3.8310	3.8309	1.4361	6.92	0.93	0.750			
0.4236	27107.94	3.8280	3.8281	1.4562	6.90	0.91	0.750			
0.4280	27389.13	3.8250	3.8251	1.4815	6.88	0.89	0.750			
0.4325	27677.54	3.8220	3.8219	1.5145	6.86	0.87	0.750			
0.4370	27969.56	3.8190	3.8191	1.5524	6.84	0.85	0.750			
0.4417	28269.97	3.8160	3.8159	1.5796	6.82	0.83	0.750			
0.4465	28577.61	3.8130	3.8130	1.6125	6.80	0.81	0.750			
0.4514	28888.45	3.8100	3.8102	1.6345	6.78	0.79	0.750			
0.4564	29207.18	3.8070	3.8070	1.6712	6.75	0.76	0.750			
0.4614	29531.52	3.8040	3.8040	1.6788	6.72	0.73	0.750			
0.4665	29857.18	3.8010	3.8010	1.6977	6.70	0.71	0.750			
0.4717	30186.06	3.7980	3.7981	1.7274	6.69	0.70	0.750			
0.4768	30514.85	3.7950	3.7948	1.7565	6.67	0.68	0.750			
0.4820	30847.87	3.7920	3.7921	1.8014	6.64	0.65	0.750			
0.4875	31200.80	3.7890	3.7889	1.8501	6.62	0.63	0.750			
0.4932	31564.44	3.7860	3.7862	1.8537	6.59	0.60	0.750			
0.4989	31928.19	3.7830	3.7833	1.8684	6.56	0.57	0.750			
0.5046	32295.68	3.7800	3.7797	1.7738	6.53	0.54	0.750			
0.5097	32623.66	3.7770	3.7771	1.7101	6.51	0.52	0.750			
0.5146	32932.65	3.7740	3.7744	1.6621	6.49	0.50	0.750			
0.5194	33241.69	3.7710	3.7704	1.6647	6.46	0.47	0.750			
0.5243	33552.71	3.7680	3.7680	1.7119	6.44	0.45	0.750			
0.5294	33884.77	3.7650	3.7653	1.7680	6.42	0.43	0.750			
0.5351	34243.87	3.7620	3.7619	1.8989	6.40	0.41	0.750			
0.5408	34612.11	3.7590	3.7590	1.9480	6.38	0.39	0.750			
0.5469	35004.42	3.7560	3.7560	2.0196	6.35	0.36	0.750			
0.5530	35394.24	3.7530	3.7529	2.0071	6.32	0.33	0.750			
0.5590	35779.15	3.7500	3.7501	2.0474	6.29	0.30	0.750			
0.5650	36162.18	3.7470	3.7472	2.0730	6.27	0.28	0.750			
0.5713	36563.07	3.7440	3.7440	2.2404	6.25	0.26	0.750			
0.5783	37008.17	3.7410	3.7410	2.2851	6.22	0.23	0.750			
0.5853	37458.67	3.7380	3.7384	2.3120	6.20	0.21	0.750			
0.5922	37899.77	3.7350	3.7350	2.3158	6.18	0.19	0.750			
0.5991	38343.07	3.7320	3.7319	2.3080	6.15	0.16	0.750			
0.6062	38795.83	3.7290	3.7291	2.3747	6.13	0.14	0.750			
0.6135	39263.58	3.7260	3.7258	2.3694	6.11	0.12	0.750			
0.6206	39719.70	3.7230	3.7229	2.3651	6.09	0.10	0.750			
0.6278	40177.45	3.7200	3.7201	2.2676	6.07	0.08	0.750			
0.6345	40606.11	3.7170	3.7172	2.1125	6.04	0.05	0.750			
0.6404	40987.75	3.7140	3.7138	1.9381	6.03	0.04	0.750			
0.6461	41347.48	3.7110	3.7109	1.7751	6.02	0.03	0.750			
0.6510	41664.49	3.7080	3.7079	1.5930	6.01	0.02	0.750			
0.6557	41962.06	3.7050	3.7052	1.4412	6.00	0.01	0.750			
0.6595	42210.60	3.7020	3.7021	1.2926	6.00	0.01	0.750			
0.6631	42440.23	3.6990	3.6988	1.1879	5.99	0.00	0.750			
0.6666	42659.37	3.6960	3.6959	1.1004	5.99	-0.00	0.750			
0.6696	42854.58	3.6930	3.6930	1.0279	5.98	-0.01	0.750			
0.6726	43045.03	3.6900	3.6903	0.9796	5.98	-0.01	0.750			
0.6755	43231.81	3.6870	3.6868	0.9462	5.97	-0.02	0.750			
0.6781	43401.34	3.6840	3.6840	0.8973	5.97	-0.02	0.750			
0.6807	43566.98	3.6810	3.6809	0.8481	5.97	-0.02	0.750			
0.6832	43727.56	3.6780	3.6781	0.8264	5.97	-0.02	0.750			
0.6857	43885.49	3.6750	3.6751	0.8040	5.97	-0.02	0.750			
0.6881	44036.27	3.6720	3.6720	0.7715	5.97	-0.02	0.750			
0.6903	44181.19	3.6690	3.6691	0.7415	5.97	-0.02	0.750			
0.6925	44320.60	3.6660	3.6660	0.7085	5.97	-0.02	0.750			
0.6946	44455.09	3.6630	3.6631	0.6731	5.97	-0.02	0.750			
0.6966	44584.02	3.6600	3.6599	0.6412	5.98	-0.01	0.750			
0.6984	44700.10	3.6570	3.6571	0.6044	5.98	-0.01	0.750			
0.7002	44812.16	3.6540	3.6540	0.5729	5.98	-0.01	0.750			
0.7019	44918.57	3.6510	3.6510	0.5405	5.98	-0.01	0.750			
0.7034	45018.87	3.6480	3.6480	0.5096	5.98	-0.01	0.750			
0.7049	45114.73	3.6450	3.6451	0.4798	5.98	-0.01	0.750			
0.7063	45203.85	3.6420	3.6419	0.4486	5.98	-0.01	0.750			
0.7076	45287.32	3.6390	3.6390	0.4144	5.99	-0.00	0.750			
0.7088	45363.36	3.6360	3.6360	0.3794	5.99	-0.00	0.750			
0.7099	45433.22	3.6330	3.6330	0.3455	5.99	-0.00	0.750			
0.7109	45497.09	3.6300	3.6299	0.3109	5.99	-0.00	0.750			
0.7118	45553.74	3.6270	3.6270	0.2722	5.99	-0.00	0.750			
0.7125	45602.65	3.6240	3.6240	0.2343	5.99	-0.00	0.750			
0.7132	45643.77	3.6210	3.6209	0.1941	5.99	-0.00	0.750			
0.7137	45678.34	3.6180	3.6180	0.1555	5.99	-0.00	0.750			
0.7141	45704.44	3.6150	3.6153	0.1140	5.99	0.00	0.750			
0.7144	45722.30	3.6120	3.6125	0.0714	5.99	0.00	0.750			
0.7146	45731.92	3.6090	3.6094	0.0288	5.99	0.00	0.750			
0.7146	45733.35	3.6060	3.6086	-0.0139	5.99	0.00	0.750			
