Ah_balance (normalized)	Ah_balance (mAh)	Voltage - fit (V)	Voltage -  interpolate (V)	dQ/dV (1/V)	Temperature (°C)	Temperature - diff (°C)	Current (C)	R_DC 0ms (mOhm)	R_DC 50ms (mOhm)	R_DC 50 ms PEC (mOhm)
0.1795	11485.23	4.0800	4.0799	0.8124	7.31	1.34	0.750			
0.1819	11639.47	4.0770	4.0770	0.8011	7.30	1.33	0.750			
0.1843	11792.82	4.0740	4.0741	0.7956	7.29	1.32	0.750			
0.1866	11943.84	4.0710	4.0710	0.7960	7.29	1.32	0.750			
0.1890	12094.81	4.0680	4.0680	0.7935	7.28	1.31	0.750			
0.1914	12248.33	4.0650	4.0650	0.7972	7.27	1.30	0.750			
0.1938	12400.81	4.0620	4.0620	0.8031	7.27	1.30	0.750			
0.1962	12558.52	4.0590	4.0589	0.7953	7.26	1.29	0.750			
0.1986	12710.40	4.0560	4.0560	0.8027	7.26	1.29	0.750			
0.2010	12865.13	4.0530	4.0531	0.8038	7.25	1.28	0.750			
0.2034	13018.74	4.0500	4.0498	0.8026	7.25	1.28	0.750			
0.2058	13173.07	4.0470	4.0471	0.8093	7.24	1.27	0.750			
0.2083	13329.32	4.0440	4.0441	0.8048	7.24	1.27	0.750			
0.2107	13482.44	4.0410	4.0409	0.8111	7.23	1.26	0.750			
0.2131	13641.40	4.0380	4.0380	0.8200	7.22	1.25	0.750			
0.2156	13795.35	4.0350	4.0350	0.8168	7.21	1.24	0.750			
0.2180	13954.14	4.0320	4.0321	0.8219	7.21	1.24	0.750			
0.2205	14115.03	4.0290	4.0290	0.8181	7.20	1.23	0.750			
0.2230	14270.32	4.0260	4.0260	0.8248	7.19	1.22	0.750			
0.2255	14429.29	4.0230	4.0231	0.8357	7.19	1.22	0.750			
0.2279	14587.76	4.0200	4.0199	0.8340	7.18	1.21	0.750			
0.2305	14749.55	4.0170	4.0170	0.8400	7.18	1.21	0.750			
0.2330	14914.90	4.0140	4.0141	0.8345	7.17	1.20	0.750			
0.2355	15073.52	4.0110	4.0111	0.8425	7.16	1.19	0.750			
0.2381	15236.72	4.0080	4.0080	0.8463	7.16	1.19	0.750			
0.2405	15394.64	4.0050	4.0050	0.8412	7.15	1.18	0.750			
0.2431	15556.80	4.0020	4.0021	0.8494	7.14	1.17	0.750			
0.2457	15722.07	3.9990	3.9991	0.8562	7.14	1.17	0.750			
0.2482	15887.53	3.9960	3.9960	0.8607	7.13	1.16	0.750			
0.2508	16053.85	3.9930	3.9931	0.8630	7.12	1.15	0.750			
0.2534	16220.43	3.9900	3.9899	0.8668	7.11	1.14	0.750			
0.2561	16388.31	3.9870	3.9869	0.8699	7.11	1.14	0.750			
0.2587	16555.71	3.9840	3.9840	0.8691	7.10	1.13	0.750			
0.2613	16722.78	3.9810	3.9811	0.8724	7.09	1.12	0.750			
0.2639	16888.62	3.9780	3.9780	0.8729	7.09	1.12	0.750			
0.2665	17057.65	3.9750	3.9748	0.8784	7.08	1.11	0.750			
0.2692	17225.80	3.9720	3.9720	0.8763	7.07	1.10	0.750			
0.2718	17394.82	3.9690	3.9690	0.8836	7.07	1.10	0.750			
0.2745	17566.24	3.9660	3.9661	0.8903	7.06	1.09	0.750			
0.2771	17735.97	3.9630	3.9630	0.8993	7.05	1.08	0.750			
0.2798	17909.22	3.9600	3.9601	0.9013	7.05	1.08	0.750			
0.2826	18087.00	3.9570	3.9569	0.8896	7.04	1.07	0.750			
0.2853	18256.25	3.9540	3.9540	0.9060	7.03	1.06	0.750			
0.2880	18429.70	3.9510	3.9513	0.9135	7.02	1.05	0.750			
0.2907	18604.02	3.9480	3.9477	0.9151	7.01	1.04	0.750			
0.2935	18781.16	3.9450	3.9451	0.9165	7.00	1.03	0.750			
0.2962	18955.64	3.9420	3.9422	0.9200	6.99	1.02	0.750			
0.2990	19134.44	3.9390	3.9391	0.9369	6.99	1.02	0.750			
0.3019	19319.76	3.9360	3.9359	0.9504	6.98	1.01	0.750			
0.3046	19496.48	3.9330	3.9330	0.9438	6.97	1.00	0.750			
0.3075	19681.27	3.9300	3.9300	0.9557	6.96	0.99	0.750			
0.3104	19867.62	3.9270	3.9271	0.9643	6.96	0.99	0.750			
0.3133	20054.28	3.9240	3.9239	0.9668	6.96	0.99	0.750			
0.3162	20238.60	3.9210	3.9210	0.9689	6.95	0.98	0.750			
0.3191	20424.80	3.9180	3.9180	0.9625	6.94	0.97	0.750			
0.3220	20607.50	3.9150	3.9151	0.9858	6.93	0.96	0.750			
0.3250	20797.45	3.9120	3.9120	0.9961	6.92	0.95	0.750			
0.3280	20990.82	3.9090	3.9089	1.0097	6.91	0.94	0.750			
0.3310	21185.93	3.9060	3.9062	1.0231	6.90	0.93	0.750			
0.3341	21385.14	3.9030	3.9031	1.0352	6.89	0.92	0.750			
0.3373	21585.28	3.9000	3.9001	1.0456	6.88	0.91	0.750			
0.3405	21788.83	3.8970	3.8969	1.0554	6.87	0.90	0.750			
0.3436	21990.68	3.8940	3.8940	1.0432	6.87	0.90	0.750			
0.3467	22191.90	3.8910	3.8910	1.0664	6.86	0.89	0.750			
0.3499	22393.24	3.8880	3.8881	1.0836	6.86	0.89	0.750			
0.3532	22603.58	3.8850	3.8848	1.0940	6.85	0.88	0.750			
0.3565	22815.17	3.8820	3.8822	1.1025	6.84	0.87	0.750			
0.3598	23025.71	3.8790	3.8791	1.1237	6.83	0.86	0.750			
0.3632	23243.88	3.8760	3.8762	1.1461	6.82	0.85	0.750			
0.3667	23468.30	3.8730	3.8727	1.1609	6.81	0.84	0.750			
0.3702	23691.08	3.8700	3.8700	1.1623	6.80	0.83	0.750			
0.3737	23914.03	3.8670	3.8672	1.1782	6.79	0.82	0.750			
0.3773	24144.69	3.8640	3.8641	1.1993	6.78	0.81	0.750			
0.3808	24372.41	3.8610	3.8609	1.1979	6.77	0.80	0.750			
0.3844	24600.01	3.8580	3.8580	1.2116	6.76	0.79	0.750			
0.3881	24835.86	3.8550	3.8552	1.2389	6.76	0.79	0.750			
0.3919	25082.47	3.8520	3.8519	1.2440	6.75	0.78	0.750			
0.3956	25315.31	3.8490	3.8491	1.2867	6.74	0.77	0.750			
0.3995	25567.46	3.8460	3.8461	1.3019	6.72	0.75	0.750			
0.4034	25817.08	3.8430	3.8426	1.3419	6.71	0.74	0.750			
0.4074	26074.63	3.8400	3.8405	1.3802	6.70	0.73	0.750			
0.4116	26345.09	3.8370	3.8372	1.4303	6.69	0.72	0.750			
0.4161	26628.06	3.8340	3.8338	1.4428	6.67	0.70	0.750	0.389	0.931	
0.4205	26909.76	3.8310	3.8312	1.4598	6.66	0.69	0.750			
0.4249	27194.40	3.8280	3.8282	1.4725	6.66	0.69	0.750			
0.4293	27476.78	3.8250	3.8246	1.5117	6.65	0.68	0.750			
0.4337	27759.45	3.8220	3.8219	1.5353	6.63	0.66	0.750			
0.4384	28057.51	3.8190	3.8192	1.5582	6.62	0.65	0.750			
0.4432	28362.58	3.8160	3.8159	1.6067	6.60	0.63	0.750			
0.4481	28677.27	3.8130	3.8133	1.6383	6.59	0.62	0.750			
0.4531	28997.80	3.8100	3.8100	1.6492	6.57	0.60	0.750			
0.4581	29317.42	3.8070	3.8071	1.6510	6.56	0.59	0.750			
0.4630	29633.66	3.8040	3.8041	1.7053	6.54	0.57	0.750			
0.4682	29966.38	3.8010	3.8010	1.7342	6.52	0.55	0.750			
0.4736	30307.39	3.7980	3.7976	1.7869	6.51	0.54	0.750			
0.4789	30650.93	3.7950	3.7949	1.8542	6.49	0.52	0.750			
0.4846	31015.43	3.7920	3.7921	1.8791	6.47	0.50	0.750			
0.4904	31383.53	3.7890	3.7890	1.9035	6.45	0.48	0.750			
0.4963	31761.94	3.7860	3.7861	1.9739	6.43	0.46	0.750			
0.5022	32140.36	3.7830	3.7831	1.9493	6.42	0.45	0.750			
0.5081	32518.97	3.7800	3.7798	1.9891	6.40	0.43	0.750			
0.5141	32905.39	3.7770	3.7771	2.0137	6.38	0.41	0.750			
0.5201	33286.98	3.7740	3.7737	2.0203	6.36	0.39	0.750			
0.5262	33678.37	3.7710	3.7706	2.1067	6.34	0.37	0.750			
0.5326	34085.07	3.7680	3.7679	2.1352	6.32	0.35	0.750			
0.5393	34513.41	3.7650	3.7651	2.1484	6.30	0.33	0.750			
0.5459	34935.43	3.7620	3.7618	2.1562	6.27	0.30	0.750			
0.5524	35354.63	3.7590	3.7590	2.1614	6.25	0.28	0.750			
0.5588	35761.18	3.7560	3.7560	2.1971	6.23	0.26	0.750			
0.5654	36182.87	3.7530	3.7530	2.2284	6.21	0.24	0.750			
0.5722	36623.38	3.7500	3.7499	2.3190	6.19	0.22	0.750			
0.5793	37078.04	3.7470	3.7470	2.3998	6.17	0.20	0.750			
0.5866	37539.87	3.7440	3.7441	2.4763	6.15	0.18	0.750			
0.5942	38027.30	3.7410	3.7411	2.5257	6.12	0.15	0.750			
0.6019	38518.65	3.7380	3.7380	2.5743	6.10	0.13	0.750			
0.6097	39021.38	3.7350	3.7349	2.6162	6.07	0.10	0.750			
0.6176	39526.05	3.7320	3.7320	2.7101	6.05	0.08	0.750			
0.6259	40058.68	3.7290	3.7288	2.7731	6.03	0.06	0.750			
0.6346	40611.47	3.7260	3.7260	2.8151	6.01	0.04	0.750			
0.6429	41142.78	3.7230	3.7232	2.7507	5.99	0.02	0.750			
0.6511	41667.84	3.7200	3.7202	2.6995	5.97	0.00	0.750			
0.6591	42181.56	3.7170	3.7172	2.5696	5.96	-0.01	0.750			
0.6670	42690.58	3.7140	3.7141	2.4830	5.95	-0.02	0.750			
0.6744	43159.01	3.7110	3.7109	2.3133	5.95	-0.02	0.750			
0.6810	43585.56	3.7080	3.7081	2.0563	5.95	-0.02	0.750			
0.6866	43942.03	3.7050	3.7054	1.7952	5.94	-0.03	0.750			
0.6915	44256.87	3.7020	3.7016	1.5705	5.93	-0.04	0.750			
0.6957	44523.99	3.6990	3.6991	1.3572	5.93	-0.04	0.750			
0.6995	44768.89	3.6960	3.6960	1.2079	5.94	-0.03	0.750			
0.7027	44975.41	3.6930	3.6931	1.0890	5.94	-0.03	0.750			
0.7058	45168.20	3.6900	3.6900	0.9851	5.94	-0.03	0.750			
0.7085	45344.64	3.6870	3.6870	0.9124	5.94	-0.03	0.750			
0.7111	45510.20	3.6840	3.6840	0.8604	5.95	-0.02	0.750			
0.7136	45670.05	3.6810	3.6810	0.8181	5.95	-0.02	0.750			
0.7160	45821.72	3.6780	3.6779	0.7713	5.95	-0.02	0.750			
0.7182	45966.76	3.6750	3.6751	0.7308	5.95	-0.02	0.750			
0.7204	46103.06	3.6720	3.6720	0.6866	5.96	-0.01	0.750			
0.7224	46232.99	3.6690	3.6690	0.6421	5.96	-0.01	0.750			
0.7242	46351.23	3.6660	3.6659	0.5890	5.96	-0.01	0.750			
0.7259	46459.24	3.6630	3.6630	0.5380	5.97	-0.00	0.750			
0.7275	46557.29	3.6600	3.6601	0.4920	5.97	-0.00	0.750			
0.7289	46646.75	3.6570	3.6566	0.4475	5.97	-0.00	0.750			
0.7301	46727.02	3.6540	3.6540	0.4035	5.97	0.00	0.750			
0.7312	46799.81	3.6510	3.6510	0.3633	5.97	0.00	0.750			
0.7323	46866.15	3.6480	3.6480	0.3270	5.98	0.01	0.750			
0.7332	46925.24	3.6450	3.6450	0.2909	5.98	0.01	0.750			
0.7340	46977.69	3.6420	3.6419	0.2529	5.98	0.01	0.750			
0.7347	47022.33	3.6390	3.6389	0.2142	5.98	0.01	0.750			
0.7353	47060.33	3.6360	3.6361	0.1773	5.98	0.01	0.750			
0.7358	47091.54	3.6330	3.6332	0.1398	5.98	0.01	0.750			
0.7362	47115.65	3.6300	3.6303	0.0999	5.98	0.01	0.750			
0.7364	47131.43	3.6270	3.6275	0.0569	5.98	0.01	0.750			
0.7365	47138.20	3.6240	3.6253	0.0136	5.98	0.01	0.750			
