Ah_balance (normalized)	Ah_balance (mAh)	Voltage - fit (V)	Voltage -  interpolate (V)	dQ/dV (1/V)	Temperature (°C)	Temperature - diff (°C)	Current (C)	R_DC 0ms (mOhm)	R_DC 50ms (mOhm)	R_DC 50 ms PEC (mOhm)
0.1774	11352.75	4.0810	4.0811	0.7632	7.35	1.36	0.750			
0.1796	11497.26	4.0780	4.0779	0.7581	7.35	1.36	0.750			
0.1819	11643.01	4.0750	4.0751	0.7674	7.35	1.36	0.750			
0.1843	11794.58	4.0720	4.0719	0.7630	7.34	1.35	0.750			
0.1866	11940.06	4.0690	4.0690	0.7665	7.34	1.35	0.750			
0.1889	12086.41	4.0660	4.0661	0.7710	7.34	1.35	0.750			
0.1912	12236.02	4.0630	4.0630	0.7812	7.33	1.34	0.750			
0.1935	12386.84	4.0600	4.0598	0.7838	7.33	1.34	0.750			
0.1959	12536.54	4.0570	4.0573	0.7884	7.32	1.33	0.750			
0.1983	12689.53	4.0540	4.0540	0.7911	7.31	1.32	0.750			
0.2007	12844.39	4.0510	4.0510	0.7982	7.31	1.32	0.750			
0.2030	12994.92	4.0480	4.0480	0.7880	7.30	1.31	0.750			
0.2054	13146.37	4.0450	4.0447	0.7902	7.29	1.30	0.750			
0.2078	13299.41	4.0420	4.0422	0.7929	7.28	1.29	0.750			
0.2102	13452.70	4.0390	4.0390	0.7905	7.28	1.29	0.750			
0.2126	13603.40	4.0360	4.0360	0.7926	7.27	1.28	0.750			
0.2149	13752.84	4.0330	4.0331	0.7945	7.27	1.28	0.750			
0.2173	13906.59	4.0300	4.0299	0.8074	7.26	1.27	0.750			
0.2198	14064.43	4.0270	4.0270	0.8143	7.26	1.27	0.750			
0.2222	14223.17	4.0240	4.0240	0.8111	7.25	1.26	0.750			
0.2247	14380.94	4.0210	4.0211	0.8213	7.25	1.26	0.750			
0.2272	14538.62	4.0180	4.0181	0.8247	7.25	1.26	0.750			
0.2296	14694.37	4.0150	4.0148	0.8222	7.24	1.25	0.750			
0.2321	14852.27	4.0120	4.0121	0.8284	7.24	1.25	0.750			
0.2346	15012.61	4.0090	4.0090	0.8271	7.24	1.25	0.750			
0.2371	15172.04	4.0060	4.0060	0.8352	7.23	1.24	0.750			
0.2396	15334.38	4.0030	4.0031	0.8435	7.23	1.24	0.750			
0.2421	15494.45	4.0000	3.9999	0.8461	7.23	1.24	0.750			
0.2446	15655.06	3.9970	3.9971	0.8758	7.23	1.24	0.750			
0.2472	15823.13	3.9940	3.9941	0.8984	7.22	1.23	0.750			
0.2500	15999.62	3.9910	3.9907	0.9206	7.21	1.22	0.750			
0.2529	16186.02	3.9880	3.9881	0.9275	7.21	1.22	0.750			
0.2557	16367.62	3.9850	3.9851	0.9229	7.20	1.21	0.750			
0.2585	16546.77	3.9820	3.9820	0.9026	7.19	1.20	0.750			
0.2612	16714.94	3.9790	3.9790	0.8921	7.19	1.20	0.750			
0.2637	16878.61	3.9760	3.9761	0.8772	7.18	1.19	0.750			
0.2664	17046.42	3.9730	3.9730	0.8792	7.17	1.18	0.750			
0.2690	17214.79	3.9700	3.9700	0.8845	7.17	1.18	0.750			
0.2717	17385.91	3.9670	3.9671	0.8914	7.16	1.17	0.750			
0.2744	17559.88	3.9640	3.9640	0.8978	7.15	1.16	0.750			
0.2771	17732.99	3.9610	3.9610	0.8993	7.14	1.15	0.750			
0.2797	17903.71	3.9580	3.9580	0.8960	7.13	1.14	0.750			
0.2825	18076.86	3.9550	3.9550	0.9038	7.13	1.14	0.750			
0.2852	18250.39	3.9520	3.9519	0.9078	7.12	1.13	0.750			
0.2879	18424.59	3.9490	3.9490	0.9129	7.12	1.13	0.750			
0.2906	18600.77	3.9460	3.9460	0.9187	7.11	1.12	0.750			
0.2934	18778.34	3.9430	3.9430	0.9268	7.11	1.12	0.750			
0.2962	18958.38	3.9400	3.9399	0.9215	7.10	1.11	0.750			
0.2989	19132.59	3.9370	3.9371	0.9347	7.09	1.10	0.750			
0.3018	19312.38	3.9340	3.9341	0.9436	7.08	1.09	0.750			
0.3046	19495.00	3.9310	3.9308	0.9511	7.07	1.08	0.750			
0.3075	19679.48	3.9280	3.9280	0.9549	7.07	1.08	0.750			
0.3104	19863.37	3.9250	3.9252	0.9680	7.06	1.07	0.750			
0.3133	20049.79	3.9220	3.9220	0.9779	7.06	1.07	0.750			
0.3162	20238.66	3.9190	3.9190	0.9792	7.05	1.06	0.750			
0.3192	20428.63	3.9160	3.9161	0.9865	7.04	1.05	0.750			
0.3222	20619.06	3.9130	3.9130	0.9950	7.03	1.04	0.750			
0.3252	20809.85	3.9100	3.9101	1.0106	7.02	1.03	0.750			
0.3282	21005.89	3.9070	3.9070	1.0189	7.00	1.01	0.750			
0.3313	21203.39	3.9040	3.9040	1.0176	6.99	1.00	0.750			
0.3343	21398.18	3.9010	3.9011	1.0305	6.98	0.99	0.750			
0.3374	21596.43	3.8980	3.8981	1.0449	6.97	0.98	0.750			
0.3406	21798.35	3.8950	3.8950	1.0541	6.97	0.98	0.750			
0.3438	22001.97	3.8920	3.8918	1.0560	6.96	0.97	0.750			
0.3469	22202.18	3.8890	3.8891	1.0732	6.95	0.96	0.750			
0.3502	22412.42	3.8860	3.8861	1.0935	6.94	0.95	0.750			
0.3535	22623.86	3.8830	3.8829	1.1088	6.93	0.94	0.750			
0.3568	22837.50	3.8800	3.8800	1.1129	6.93	0.94	0.750			
0.3602	23051.95	3.8770	3.8771	1.1272	6.91	0.92	0.750			
0.3636	23270.39	3.8740	3.8740	1.1471	6.90	0.91	0.750			
0.3671	23494.31	3.8710	3.8709	1.1601	6.89	0.90	0.750			
0.3706	23715.46	3.8680	3.8680	1.1657	6.88	0.89	0.750			
0.3741	23941.78	3.8650	3.8650	1.1867	6.87	0.88	0.750			
0.3777	24171.38	3.8620	3.8621	1.2044	6.86	0.87	0.750			
0.3813	24403.54	3.8590	3.8590	1.2150	6.85	0.86	0.750			
0.3850	24638.25	3.8560	3.8560	1.2324	6.84	0.85	0.750			
0.3887	24876.08	3.8530	3.8530	1.2470	6.82	0.83	0.750			
0.3925	25117.74	3.8500	3.8497	1.2682	6.81	0.82	0.750			
0.3963	25360.43	3.8470	3.8471	1.3071	6.80	0.81	0.750			
0.4002	25614.66	3.8440	3.8441	1.3359	6.78	0.79	0.750			
0.4044	25880.03	3.8410	3.8404	1.3509	6.76	0.77	0.750	0.417	0.901	
0.4085	26141.10	3.8380	3.8382	1.3797	6.75	0.76	0.750			
0.4126	26405.78	3.8350	3.8352	1.4083	6.73	0.74	0.750			
0.4169	26678.98	3.8320	3.8318	1.4278	6.71	0.72	0.750			
0.4211	26952.02	3.8290	3.8292	1.4223	6.70	0.71	0.750			
0.4254	27224.71	3.8260	3.8262	1.4568	6.69	0.70	0.750			
0.4299	27513.23	3.8230	3.8230	1.4949	6.67	0.68	0.750			
0.4344	27798.56	3.8200	3.8202	1.5244	6.66	0.67	0.750			
0.4390	28094.25	3.8170	3.8170	1.5573	6.65	0.66	0.750			
0.4437	28396.35	3.8140	3.8141	1.6116	6.64	0.65	0.750			
0.4486	28712.13	3.8110	3.8110	1.6281	6.62	0.63	0.750			
0.4536	29032.36	3.8080	3.8080	1.6672	6.60	0.61	0.750			
0.4586	29351.18	3.8050	3.8052	1.6905	6.58	0.59	0.750			
0.4637	29679.13	3.8020	3.8020	1.7059	6.56	0.57	0.750			
0.4689	30010.18	3.7990	3.7991	1.7381	6.54	0.55	0.750			
0.4741	30345.05	3.7960	3.7962	1.7558	6.51	0.52	0.750			
0.4795	30688.09	3.7930	3.7930	1.7535	6.49	0.50	0.750			
0.4848	31027.01	3.7900	3.7902	1.7995	6.47	0.48	0.750			
0.4902	31371.76	3.7870	3.7873	1.7960	6.45	0.46	0.750			
0.4956	31719.56	3.7840	3.7839	1.8480	6.43	0.44	0.750			
0.5013	32080.83	3.7810	3.7810	1.8620	6.41	0.42	0.750			
0.5068	32436.47	3.7780	3.7779	1.8603	6.39	0.40	0.750			
0.5125	32799.73	3.7750	3.7753	1.8866	6.37	0.38	0.750			
0.5182	33164.49	3.7720	3.7719	1.9194	6.35	0.36	0.750			
0.5239	33529.13	3.7690	3.7691	1.8988	6.33	0.34	0.750			
0.5297	33897.62	3.7660	3.7660	1.9378	6.31	0.32	0.750			
0.5355	34269.99	3.7630	3.7630	1.9476	6.29	0.30	0.750			
0.5412	34637.63	3.7600	3.7601	1.9918	6.28	0.29	0.750			
0.5473	35028.94	3.7570	3.7569	2.0177	6.26	0.27	0.750			
0.5536	35428.16	3.7540	3.7540	2.0488	6.24	0.25	0.750			
0.5598	35825.29	3.7510	3.7511	2.0414	6.21	0.22	0.750			
0.5660	36223.53	3.7480	3.7480	1.9979	6.19	0.20	0.750			
0.5718	36594.83	3.7450	3.7455	2.0236	6.17	0.18	0.750			
0.5778	36980.59	3.7420	3.7417	2.1298	6.16	0.17	0.750			
0.5842	37386.84	3.7390	3.7393	2.3129	6.14	0.15	0.750			
0.5916	37861.95	3.7360	3.7360	2.4185	6.11	0.12	0.750			
0.5988	38325.53	3.7330	3.7334	2.3717	6.10	0.11	0.750			
0.6060	38781.63	3.7300	3.7299	2.4146	6.08	0.09	0.750			
0.6132	39246.07	3.7270	3.7268	2.4109	6.05	0.06	0.750			
0.6206	39717.46	3.7240	3.7241	2.3773	6.04	0.05	0.750			
0.6279	40186.07	3.7210	3.7209	2.3399	6.02	0.03	0.750			
0.6346	40611.54	3.7180	3.7178	2.2006	6.01	0.02	0.750			
0.6411	41032.59	3.7150	3.7151	2.0615	5.99	0.00	0.750			
0.6471	41416.30	3.7120	3.7119	1.8889	5.98	-0.01	0.750			
0.6525	41761.45	3.7090	3.7091	1.6846	5.97	-0.02	0.750			
0.6572	42059.93	3.7060	3.7061	1.5014	5.97	-0.02	0.750			
0.6615	42333.05	3.7030	3.7030	1.3436	5.97	-0.02	0.750			
0.6650	42562.60	3.7000	3.7003	1.2104	5.97	-0.02	0.750			
0.6684	42780.51	3.6970	3.6967	1.1176	5.97	-0.02	0.750			
0.6715	42978.26	3.6940	3.6940	1.0326	5.96	-0.03	0.750			
0.6744	43161.71	3.6910	3.6911	0.9759	5.96	-0.03	0.750			
0.6773	43349.17	3.6880	3.6880	0.9505	5.95	-0.04	0.750			
0.6801	43527.09	3.6850	3.6847	0.9161	5.95	-0.04	0.750			
0.6828	43699.69	3.6820	3.6821	0.8876	5.95	-0.04	0.750			
0.6854	43867.53	3.6790	3.6790	0.8581	5.95	-0.04	0.750			
0.6880	44030.47	3.6760	3.6760	0.8321	5.95	-0.04	0.750			
0.6904	44187.61	3.6730	3.6730	0.7968	5.95	-0.04	0.750			
0.6928	44338.43	3.6700	3.6697	0.7713	5.95	-0.04	0.750			
0.6951	44483.59	3.6670	3.6670	0.7445	5.95	-0.04	0.750			
0.6973	44624.40	3.6640	3.6640	0.7115	5.95	-0.04	0.750			
0.6994	44759.25	3.6610	3.6609	0.6792	5.96	-0.03	0.750			
0.7013	44885.19	3.6580	3.6581	0.6429	5.96	-0.03	0.750			
0.7032	45006.41	3.6550	3.6552	0.6133	5.96	-0.03	0.750			
0.7050	45119.44	3.6520	3.6518	0.5877	5.96	-0.03	0.750			
0.7067	45228.06	3.6490	3.6491	0.5584	5.96	-0.03	0.750			
0.7084	45335.34	3.6460	3.6459	0.5264	5.97	-0.02	0.750			
0.7100	45437.72	3.6430	3.6427	0.4962	5.97	-0.02	0.750			
0.7114	45529.15	3.6400	3.6404	0.4530	5.97	-0.02	0.750			
0.7127	45612.36	3.6370	3.6372	0.4139	5.98	-0.01	0.750			
0.7139	45686.49	3.6340	3.6337	0.3754	5.98	-0.01	0.750			
0.7149	45753.01	3.6310	3.6308	0.3374	5.98	-0.01	0.750			
0.7158	45812.55	3.6280	3.6280	0.3016	5.99	-0.00	0.750			
0.7167	45868.19	3.6250	3.6252	0.2742	5.99	-0.00	0.750			
0.7175	45921.57	3.6220	3.6218	0.2395	5.99	-0.00	0.750			
0.7182	45964.30	3.6190	3.6190	0.2004	5.99	0.00	0.750			
0.7187	45999.04	3.6160	3.6163	0.1591	5.99	0.00	0.750			
0.7192	46026.33	3.6130	3.6133	0.1173	5.99	0.00	0.750			
0.7195	46048.08	3.6100	3.6097	0.0713	5.99	0.00	0.750			
0.7196	46056.01	3.6040	3.6060	-0.0250	5.99	0.00	0.750			
0.7196	46056.19	3.6070	3.6059	0.0232	5.99	0.00	0.750			
