Ah_balance (normalized)	Ah_balance (mAh)	Voltage - fit (V)	Voltage -  interpolate (V)	dQ/dV (1/V)	Temperature (°C)	Temperature - diff (°C)	Current (C)	R_DC 0ms (mOhm)	R_DC 50ms (mOhm)	R_DC 50 ms PEC (mOhm)
0.0926	5926.99	4.0040	4.0037	-0.0839	5.99	0.00	-0.750			
0.0929	5946.94	4.0010	4.0008	-0.1149	5.99	0.00	-0.750			
0.0933	5971.51	3.9980	3.9978	-0.1410	5.99	0.00	-0.750			
0.0938	6001.52	3.9950	3.9950	-0.1652	5.99	-0.00	-0.750			
0.0943	6035.51	3.9920	3.9921	-0.1897	5.99	-0.00	-0.750			
0.0949	6074.28	3.9890	3.9891	-0.2142	5.99	-0.00	-0.750			
0.0956	6118.55	3.9860	3.9860	-0.2379	5.99	-0.00	-0.750			
0.0963	6166.05	3.9830	3.9830	-0.2612	5.99	-0.00	-0.750			
0.0972	6218.51	3.9800	3.9801	-0.2847	5.98	-0.01	-0.750			
0.0981	6275.73	3.9770	3.9770	-0.3090	5.98	-0.01	-0.750			
0.0990	6337.01	3.9740	3.9739	-0.3333	5.98	-0.01	-0.750			
0.1001	6403.26	3.9710	3.9711	-0.3562	5.98	-0.01	-0.750			
0.1011	6473.51	3.9680	3.9680	-0.3809	5.98	-0.01	-0.750			
0.1023	6549.29	3.9650	3.9649	-0.4064	5.98	-0.01	-0.750			
0.1036	6630.30	3.9620	3.9621	-0.4282	5.97	-0.02	-0.750			
0.1049	6714.88	3.9590	3.9590	-0.4515	5.97	-0.02	-0.750			
0.1063	6804.34	3.9560	3.9561	-0.4730	5.97	-0.02	-0.750			
0.1078	6897.09	3.9530	3.9530	-0.4931	5.97	-0.02	-0.750			
0.1093	6992.85	3.9500	3.9500	-0.5121	5.96	-0.03	-0.750			
0.1108	7092.99	3.9470	3.9470	-0.5316	5.96	-0.03	-0.750			
0.1125	7197.43	3.9440	3.9440	-0.5529	5.96	-0.03	-0.750			
0.1142	7306.56	3.9410	3.9409	-0.5675	5.96	-0.03	-0.750			
0.1159	7417.81	3.9380	3.9381	-0.5813	5.95	-0.04	-0.750			
0.1177	7531.04	3.9350	3.9350	-0.5952	5.95	-0.04	-0.750			
0.1195	7646.00	3.9320	3.9320	-0.6093	5.95	-0.04	-0.750			
0.1213	7764.67	3.9290	3.9289	-0.6215	5.95	-0.04	-0.750			
0.1232	7884.62	3.9260	3.9260	-0.6326	5.95	-0.04	-0.750			
0.1251	8007.05	3.9230	3.9230	-0.6447	5.94	-0.05	-0.750			
0.1271	8133.93	3.9200	3.9201	-0.6544	5.94	-0.05	-0.750			
0.1291	8260.37	3.9170	3.9169	-0.6639	5.94	-0.05	-0.750			
0.1311	8388.88	3.9140	3.9140	-0.6664	5.94	-0.05	-0.750			
0.1331	8515.77	3.9110	3.9110	-0.6739	5.94	-0.05	-0.750			
0.1351	8646.19	3.9080	3.9080	-0.6834	5.94	-0.05	-0.750			
0.1371	8776.95	3.9050	3.9050	-0.6987	5.94	-0.05	-0.750			
0.1393	8916.14	3.9020	3.9018	-0.7026	5.95	-0.04	-0.750			
0.1415	9053.28	3.8990	3.8989	-0.7067	5.95	-0.04	-0.750			
0.1436	9188.99	3.8960	3.8962	-0.7039	5.95	-0.04	-0.750			
0.1457	9325.64	3.8930	3.8932	-0.7081	5.95	-0.04	-0.750			
0.1478	9458.55	3.8900	3.8897	-0.7080	5.96	-0.03	-0.750			
0.1499	9591.79	3.8870	3.8870	-0.7082	5.96	-0.03	-0.750			
0.1520	9727.05	3.8840	3.8840	-0.7087	5.96	-0.03	-0.750			
0.1542	9865.70	3.8810	3.8810	-0.7184	5.97	-0.02	-0.750			
0.1563	10005.59	3.8780	3.8782	-0.7221	5.97	-0.02	-0.750			
0.1585	10144.30	3.8750	3.8748	-0.7258	5.98	-0.01	-0.750			
0.1607	10283.09	3.8720	3.8721	-0.7247	5.98	-0.01	-0.750			
0.1629	10422.65	3.8690	3.8690	-0.7287	5.99	0.00	-0.750			
0.1651	10563.48	3.8660	3.8660	-0.7315	6.00	0.01	-0.750			
0.1673	10704.34	3.8630	3.8630	-0.7349	6.01	0.02	-0.750			
0.1694	10844.71	3.8600	3.8600	-0.7346	6.01	0.02	-0.750			
0.1717	10986.38	3.8570	3.8570	-0.7336	6.01	0.02	-0.750			
0.1739	11127.92	3.8540	3.8540	-0.7370	6.02	0.03	-0.750			
0.1761	11269.92	3.8510	3.8510	-0.7392	6.02	0.03	-0.750			
0.1783	11412.32	3.8480	3.8479	-0.7384	6.03	0.04	-0.750			
0.1805	11554.41	3.8450	3.8450	-0.7398	6.03	0.04	-0.750			
0.1827	11695.66	3.8420	3.8419	-0.7398	6.04	0.05	-0.750			
0.1850	11837.50	3.8390	3.8390	-0.7416	6.04	0.05	-0.750			
0.1872	11979.87	3.8360	3.8359	-0.7480	6.05	0.06	-0.750			
0.1894	12123.66	3.8330	3.8330	-0.7417	6.06	0.07	-0.750			
0.1917	12268.89	3.8300	3.8299	-0.7453	6.06	0.07	-0.750			
0.1939	12412.25	3.8270	3.8272	-0.7445	6.07	0.08	-0.750			
0.1962	12554.67	3.8240	3.8239	-0.7435	6.08	0.09	-0.750			
0.1984	12697.02	3.8210	3.8210	-0.7465	6.09	0.10	-0.750			
0.2006	12839.27	3.8180	3.8180	-0.7458	6.09	0.10	-0.750			
0.2029	12983.83	3.8150	3.8150	-0.7538	6.10	0.11	-0.750			
0.2052	13130.13	3.8120	3.8120	-0.7530	6.11	0.12	-0.750			
0.2074	13274.86	3.8090	3.8088	-0.7493	6.11	0.12	-0.750			
0.2097	13418.17	3.8060	3.8060	-0.7493	6.12	0.13	-0.750			
0.2119	13560.62	3.8030	3.8031	-0.7514	6.13	0.14	-0.750			
0.2141	13705.31	3.8000	3.7999	-0.7497	6.14	0.15	-0.750			
0.2164	13850.83	3.7970	3.7969	-0.7520	6.14	0.15	-0.750			
0.2187	13994.60	3.7940	3.7943	-0.7539	6.15	0.16	-0.750			
0.2210	14141.79	3.7910	3.7909	-0.7582	6.16	0.17	-0.750			
0.2232	14286.31	3.7880	3.7879	-0.7572	6.16	0.17	-0.750			
0.2255	14431.03	3.7850	3.7850	-0.7523	6.17	0.18	-0.750			
0.2277	14575.51	3.7820	3.7820	-0.7569	6.18	0.19	-0.750			
0.2300	14719.92	3.7790	3.7790	-0.7603	6.19	0.20	-0.750			
0.2323	14865.81	3.7760	3.7760	-0.7601	6.20	0.21	-0.750			
0.2346	15011.25	3.7730	3.7729	-0.7620	6.21	0.22	-0.750			
0.2368	15158.34	3.7700	3.7701	-0.7682	6.22	0.23	-0.750			
0.2392	15306.38	3.7670	3.7670	-0.7700	6.23	0.24	-0.750			
0.2415	15456.56	3.7640	3.7639	-0.7693	6.24	0.25	-0.750			
0.2438	15602.30	3.7610	3.7610	-0.7725	6.25	0.26	-0.750			
0.2461	15750.85	3.7580	3.7581	-0.7756	6.26	0.27	-0.750			
0.2484	15900.70	3.7550	3.7550	-0.7853	6.26	0.27	-0.750			
0.2508	16052.49	3.7520	3.7519	-0.7860	6.27	0.28	-0.750			
0.2532	16203.76	3.7490	3.7490	-0.7872	6.27	0.28	-0.750			
0.2556	16356.05	3.7460	3.7462	-0.7896	6.28	0.29	-0.750			
0.2579	16507.83	3.7430	3.7430	-0.7986	6.29	0.30	-0.750			
0.2603	16658.65	3.7400	3.7400	-0.8017	6.30	0.31	-0.750			
0.2627	16813.61	3.7370	3.7369	-0.8074	6.31	0.32	-0.750			
0.2651	16969.38	3.7340	3.7340	-0.8114	6.32	0.33	-0.750			
0.2677	17129.70	3.7310	3.7311	-0.8213	6.33	0.34	-0.750			
0.2701	17287.38	3.7280	3.7280	-0.8223	6.34	0.35	-0.750			
0.2726	17444.60	3.7250	3.7249	-0.8273	6.34	0.35	-0.750			
0.2750	17602.51	3.7220	3.7221	-0.8295	6.35	0.36	-0.750			
0.2775	17760.93	3.7190	3.7190	-0.8363	6.36	0.37	-0.750			
0.2801	17924.04	3.7160	3.7160	-0.8474	6.37	0.38	-0.750			
0.2826	18087.89	3.7130	3.7130	-0.8502	6.38	0.39	-0.750			
0.2852	18251.43	3.7100	3.7100	-0.8589	6.38	0.39	-0.750			
0.2878	18416.26	3.7070	3.7070	-0.8631	6.39	0.40	-0.750			
0.2903	18581.78	3.7040	3.7040	-0.8670	6.40	0.41	-0.750			
0.2930	18749.53	3.7010	3.7008	-0.8754	6.41	0.42	-0.750			
0.2956	18917.15	3.6980	3.6980	-0.8844	6.42	0.43	-0.750			
0.2983	19088.60	3.6950	3.6949	-0.8915	6.43	0.44	-0.750			
0.3010	19261.15	3.6920	3.6920	-0.9009	6.43	0.44	-0.750			
0.3036	19432.38	3.6890	3.6890	-0.9061	6.44	0.45	-0.750			
0.3064	19609.89	3.6860	3.6862	-0.9177	6.45	0.46	-0.750			
0.3092	19786.85	3.6830	3.6830	-0.9276	6.46	0.47	-0.750			
0.3120	19964.84	3.6800	3.6800	-0.9362	6.46	0.47	-0.750			
0.3148	20145.63	3.6770	3.6769	-0.9443	6.47	0.48	-0.750			
0.3176	20328.77	3.6740	3.6740	-0.9553	6.48	0.49	-0.750			
0.3205	20512.82	3.6710	3.6710	-0.9572	6.48	0.49	-0.750			
0.3234	20698.08	3.6680	3.6680	-0.9704	6.49	0.50	-0.750			
0.3263	20885.89	3.6650	3.6650	-0.9783	6.50	0.51	-0.750			
0.3293	21073.84	3.6620	3.6619	-0.9838	6.51	0.52	-0.750			
0.3322	21263.29	3.6590	3.6590	-0.9935	6.51	0.52	-0.750			
0.3352	21455.08	3.6560	3.6560	-1.0061	6.52	0.53	-0.750			
0.3383	21649.92	3.6530	3.6530	-1.0122	6.52	0.53	-0.750			
0.3413	21842.94	3.6500	3.6499	-1.0195	6.53	0.54	-0.750			
0.3444	22040.80	3.6470	3.6471	-1.0414	6.53	0.54	-0.750			
0.3475	22242.71	3.6440	3.6439	-1.0476	6.54	0.55	-0.750			
0.3507	22445.06	3.6410	3.6410	-1.0557	6.55	0.56	-0.750			
0.3539	22648.75	3.6380	3.6379	-1.0644	6.56	0.57	-0.750			
0.3571	22853.50	3.6350	3.6351	-1.0864	6.57	0.58	-0.750			
0.3604	23065.78	3.6320	3.6319	-1.0906	6.58	0.59	-0.750			
0.3637	23274.83	3.6290	3.6290	-1.0950	6.59	0.60	-0.750			
0.3670	23484.88	3.6260	3.6260	-1.0996	6.60	0.61	-0.750			
0.3703	23700.04	3.6230	3.6230	-1.1149	6.61	0.62	-0.750			
0.3736	23913.56	3.6200	3.6199	-1.1207	6.62	0.63	-0.750			
0.3770	24127.33	3.6170	3.6170	-1.1305	6.62	0.63	-0.750			
0.3804	24342.73	3.6140	3.6141	-1.1388	6.63	0.64	-0.750			
0.3839	24566.89	3.6110	3.6109	-1.1586	6.64	0.65	-0.750			
0.3874	24791.48	3.6080	3.6080	-1.1665	6.65	0.66	-0.750			
0.3909	25016.69	3.6050	3.6050	-1.1745	6.65	0.66	-0.750			
0.3944	25241.11	3.6020	3.6021	-1.1964	6.66	0.67	-0.750			
0.3980	25471.74	3.5990	3.5990	-1.2062	6.67	0.68	-0.750			
0.4017	25705.97	3.5960	3.5959	-1.2172	6.68	0.69	-0.750			
0.4053	25942.22	3.5930	3.5929	-1.2274	6.69	0.70	-0.750			
0.4091	26180.00	3.5900	3.5899	-1.2416	6.69	0.70	-0.750	0.454	1.039	
0.4128	26419.11	3.5870	3.5870	-1.2513	6.70	0.71	-0.750			
0.4165	26659.06	3.5840	3.5840	-1.2604	6.71	0.72	-0.750			
0.4203	26898.68	3.5810	3.5810	-1.2706	6.71	0.72	-0.750			
0.4242	27145.82	3.5780	3.5780	-1.2862	6.72	0.73	-0.750			
0.4280	27394.86	3.5750	3.5751	-1.3028	6.73	0.74	-0.750			
0.4320	27647.07	3.5720	3.5720	-1.3192	6.73	0.74	-0.750			
0.4360	27900.87	3.5690	3.5689	-1.3271	6.74	0.75	-0.750			
0.4400	28156.83	3.5660	3.5660	-1.3405	6.74	0.75	-0.750			
0.4440	28415.45	3.5630	3.5631	-1.3659	6.75	0.76	-0.750			
0.4481	28681.02	3.5600	3.5598	-1.3766	6.76	0.77	-0.750			
0.4523	28948.16	3.5570	3.5570	-1.3885	6.76	0.77	-0.750			
0.4565	29215.55	3.5540	3.5543	-1.4051	6.77	0.78	-0.750			
0.4607	29487.80	3.5510	3.5509	-1.4212	6.79	0.80	-0.750			
0.4650	29761.62	3.5480	3.5479	-1.4348	6.80	0.81	-0.750			
0.4694	30038.71	3.5450	3.5451	-1.4458	6.81	0.82	-0.750			
0.4737	30319.47	3.5420	3.5419	-1.4689	6.82	0.83	-0.750			
0.4782	30602.94	3.5390	3.5390	-1.4846	6.83	0.84	-0.750			
0.4826	30889.29	3.5360	3.5361	-1.4926	6.83	0.84	-0.750			
0.4872	31178.53	3.5330	3.5328	-1.5016	6.84	0.85	-0.750			
0.4917	31466.92	3.5300	3.5299	-1.5086	6.85	0.86	-0.750			
0.4961	31753.26	3.5270	3.5271	-1.5113	6.86	0.87	-0.750			
0.5007	32047.27	3.5240	3.5240	-1.5404	6.87	0.88	-0.750			
0.5054	32343.07	3.5210	3.5209	-1.5408	6.88	0.89	-0.750			
0.5100	32640.89	3.5180	3.5179	-1.5483	6.89	0.90	-0.750			
0.5147	32940.89	3.5150	3.5149	-1.5685	6.90	0.91	-0.750			
0.5195	33248.47	3.5120	3.5119	-1.5617	6.91	0.92	-0.750			
0.5242	33547.86	3.5090	3.5091	-1.5561	6.92	0.93	-0.750			
0.5289	33847.95	3.5060	3.5060	-1.5585	6.93	0.94	-0.750			
0.5335	34144.94	3.5030	3.5029	-1.5421	6.94	0.95	-0.750			
0.5382	34443.32	3.5000	3.5000	-1.5530	6.95	0.96	-0.750			
0.5428	34738.25	3.4970	3.4970	-1.5516	6.97	0.98	-0.750			
0.5474	35035.43	3.4940	3.4939	-1.5548	6.98	0.99	-0.750			
0.5522	35337.76	3.4910	3.4911	-1.5579	7.00	1.01	-0.750			
0.5568	35633.84	3.4880	3.4881	-1.5473	7.01	1.02	-0.750			
0.5615	35933.04	3.4850	3.4849	-1.5384	7.02	1.03	-0.750			
0.5661	36232.53	3.4820	3.4821	-1.5385	7.03	1.04	-0.750			
0.5707	36526.16	3.4790	3.4788	-1.5214	7.05	1.06	-0.750			
0.5753	36817.56	3.4760	3.4760	-1.5196	7.06	1.07	-0.750			
0.5798	37107.17	3.4730	3.4730	-1.5194	7.07	1.08	-0.750			
0.5844	37398.83	3.4700	3.4698	-1.5094	7.08	1.09	-0.750			
0.5889	37690.34	3.4670	3.4671	-1.5032	7.10	1.11	-0.750			
0.5934	37978.61	3.4640	3.4643	-1.5001	7.11	1.12	-0.750			
0.5979	38264.75	3.4610	3.4609	-1.4865	7.12	1.13	-0.750			
0.6024	38552.45	3.4580	3.4579	-1.4752	7.14	1.15	-0.750			
0.6068	38832.48	3.4550	3.4552	-1.4591	7.15	1.16	-0.750			
0.6112	39115.06	3.4520	3.4519	-1.4520	7.17	1.18	-0.750			
0.6155	39392.85	3.4490	3.4489	-1.4297	7.18	1.19	-0.750			
0.6198	39664.18	3.4460	3.4461	-1.4109	7.19	1.20	-0.750			
0.6240	39936.71	3.4430	3.4429	-1.3966	7.21	1.22	-0.750			
0.6281	40199.13	3.4400	3.4399	-1.3788	7.23	1.24	-0.750			
0.6322	40460.58	3.4370	3.4371	-1.3530	7.25	1.26	-0.750			
0.6363	40722.28	3.4340	3.4339	-1.3349	7.27	1.28	-0.750			
0.6403	40978.10	3.4310	3.4309	-1.3070	7.28	1.29	-0.750			
0.6441	41225.14	3.4280	3.4282	-1.2779	7.30	1.31	-0.750			
0.6480	41470.11	3.4250	3.4250	-1.2574	7.32	1.33	-0.750			
0.6517	41707.71	3.4220	3.4219	-1.2314	7.33	1.34	-0.750			
0.6553	41940.10	3.4190	3.4190	-1.2031	7.35	1.36	-0.750			
0.6589	42171.81	3.4160	3.4159	-1.1881	7.37	1.38	-0.750			
0.6625	42398.49	3.4130	3.4130	-1.1600	7.39	1.40	-0.750			
0.6659	42620.40	3.4100	3.4099	-1.1344	7.41	1.42	-0.750			
0.6693	42834.21	3.4070	3.4072	-1.1019	7.42	1.43	-0.750			
0.6726	43043.46	3.4040	3.4039	-1.0721	7.44	1.45	-0.750			
0.6757	43245.50	3.4010	3.4009	-1.0421	7.46	1.47	-0.750			
0.6787	43438.72	3.3980	3.3981	-1.0101	7.48	1.49	-0.750			
0.6818	43634.38	3.3950	3.3951	-0.9979	7.49	1.50	-0.750			
0.6847	43823.73	3.3920	3.3919	-0.9751	7.51	1.52	-0.750			
0.6876	44009.29	3.3890	3.3890	-0.9483	7.52	1.53	-0.750			
0.6905	44189.68	3.3860	3.3861	-0.9201	7.54	1.55	-0.750			
0.6932	44364.63	3.3830	3.3830	-0.8956	7.55	1.56	-0.750			
0.6958	44533.44	3.3800	3.3800	-0.8693	7.56	1.57	-0.750			
0.6984	44696.16	3.3770	3.3770	-0.8421	7.58	1.59	-0.750			
0.7009	44854.92	3.3740	3.3740	-0.8185	7.60	1.61	-0.750			
0.7033	45010.36	3.3710	3.3709	-0.7930	7.61	1.62	-0.750			
0.7057	45161.63	3.3680	3.3681	-0.7719	7.63	1.64	-0.750			
0.7079	45306.66	3.3650	3.3650	-0.7502	7.64	1.65	-0.750			
0.7101	45447.38	3.3620	3.3619	-0.7285	7.65	1.66	-0.750			
0.7123	45585.02	3.3590	3.3590	-0.7123	7.67	1.68	-0.750			
0.7143	45718.21	3.3560	3.3560	-0.6970	7.68	1.69	-0.750			
0.7164	45852.40	3.3530	3.3530	-0.6811	7.69	1.70	-0.750			
0.7185	45982.41	3.3500	3.3500	-0.6646	7.70	1.71	-0.750			
0.7204	46108.77	3.3470	3.3470	-0.6447	7.71	1.72	-0.750			
0.7224	46230.67	3.3440	3.3440	-0.6232	7.72	1.73	-0.750			
0.7242	46348.49	3.3410	3.3410	-0.5986	7.73	1.74	-0.750			
0.7260	46461.12	3.3380	3.3380	-0.5748	7.74	1.75	-0.750			
