Ah_balance (normalized)	Ah_balance (mAh)	Voltage - fit (V)	Voltage -  interpolate (V)	dQ/dV (1/V)	Temperature (°C)	Temperature - diff (°C)	Current (C)	R_DC 0ms (mOhm)	R_DC 50ms (mOhm)	R_DC 50 ms PEC (mOhm)
0.1795	11489.03	4.0800	4.0800	0.7832	7.36	1.39	0.750			
0.1818	11637.75	4.0770	4.0771	0.7787	7.36	1.39	0.750			
0.1841	11785.20	4.0740	4.0740	0.7861	7.35	1.38	0.750			
0.1865	11938.58	4.0710	4.0709	0.7967	7.35	1.38	0.750			
0.1889	12092.76	4.0680	4.0680	0.8013	7.35	1.38	0.750			
0.1914	12250.28	4.0650	4.0649	0.8021	7.34	1.37	0.750			
0.1938	12403.70	4.0620	4.0622	0.8020	7.34	1.37	0.750			
0.1962	12557.89	4.0590	4.0590	0.8042	7.34	1.37	0.750			
0.1986	12710.96	4.0560	4.0561	0.8026	7.33	1.36	0.750			
0.2010	12864.37	4.0530	4.0529	0.8006	7.33	1.36	0.750			
0.2034	13019.85	4.0500	4.0501	0.7897	7.32	1.35	0.750			
0.2058	13169.91	4.0470	4.0472	0.8072	7.31	1.34	0.750			
0.2082	13325.62	4.0440	4.0440	0.8168	7.30	1.33	0.750			
0.2107	13481.66	4.0410	4.0409	0.8170	7.30	1.33	0.750			
0.2131	13637.60	4.0380	4.0379	0.8211	7.29	1.32	0.750			
0.2156	13798.51	4.0350	4.0354	0.8202	7.28	1.31	0.750			
0.2181	13960.21	4.0320	4.0320	0.8244	7.27	1.30	0.750			
0.2206	14118.23	4.0290	4.0290	0.8202	7.26	1.29	0.750			
0.2230	14270.22	4.0260	4.0260	0.8132	7.26	1.29	0.750			
0.2254	14425.79	4.0230	4.0229	0.8215	7.25	1.28	0.750			
0.2279	14585.50	4.0200	4.0200	0.8260	7.24	1.27	0.750			
0.2304	14744.46	4.0170	4.0170	0.8326	7.24	1.27	0.750			
0.2329	14905.97	4.0140	4.0140	0.8405	7.24	1.27	0.750			
0.2354	15068.77	4.0110	4.0111	0.8422	7.23	1.26	0.750			
0.2380	15230.07	4.0080	4.0079	0.8433	7.23	1.26	0.750			
0.2405	15392.78	4.0050	4.0050	0.8424	7.22	1.25	0.750			
0.2430	15552.85	4.0020	4.0021	0.8477	7.21	1.24	0.750			
0.2456	15715.50	3.9990	3.9990	0.8553	7.20	1.23	0.750			
0.2481	15880.39	3.9960	3.9960	0.8601	7.20	1.23	0.750			
0.2507	16045.37	3.9930	3.9930	0.8660	7.19	1.22	0.750			
0.2533	16213.21	3.9900	3.9901	0.8749	7.18	1.21	0.750			
0.2560	16384.31	3.9870	3.9870	0.8763	7.18	1.21	0.750			
0.2586	16552.59	3.9840	3.9840	0.8811	7.17	1.20	0.750			
0.2613	16722.18	3.9810	3.9810	0.8768	7.16	1.19	0.750			
0.2639	16889.78	3.9780	3.9779	0.8760	7.16	1.19	0.750			
0.2665	17058.16	3.9750	3.9750	0.8779	7.15	1.18	0.750			
0.2692	17225.88	3.9720	3.9721	0.8791	7.14	1.17	0.750			
0.2718	17393.88	3.9690	3.9689	0.8833	7.14	1.17	0.750			
0.2744	17564.18	3.9660	3.9657	0.8915	7.13	1.16	0.750			
0.2771	17735.95	3.9630	3.9630	0.8876	7.12	1.15	0.750			
0.2798	17905.97	3.9600	3.9600	0.9069	7.11	1.14	0.750			
0.2825	18080.96	3.9570	3.9571	0.9165	7.11	1.14	0.750			
0.2853	18260.46	3.9540	3.9540	0.9184	7.10	1.13	0.750			
0.2881	18437.08	3.9510	3.9509	0.9236	7.09	1.12	0.750			
0.2909	18615.15	3.9480	3.9481	0.9233	7.08	1.11	0.750			
0.2936	18791.99	3.9450	3.9450	0.9244	7.07	1.10	0.750			
0.2964	18969.36	3.9420	3.9419	0.9279	7.06	1.09	0.750			
0.2991	19142.77	3.9390	3.9390	0.9297	7.05	1.08	0.750			
0.3020	19328.36	3.9360	3.9360	0.9302	7.04	1.07	0.750			
0.3048	19506.57	3.9330	3.9330	0.9432	7.04	1.07	0.750			
0.3076	19686.23	3.9300	3.9301	0.9502	7.03	1.06	0.750			
0.3105	19869.46	3.9270	3.9271	0.9672	7.02	1.05	0.750			
0.3134	20054.83	3.9240	3.9241	0.9746	7.02	1.05	0.750			
0.3163	20242.17	3.9210	3.9211	0.9801	7.01	1.04	0.750			
0.3192	20430.27	3.9180	3.9182	0.9921	7.00	1.03	0.750			
0.3223	20625.35	3.9150	3.9151	1.0061	7.00	1.03	0.750			
0.3253	20818.08	3.9120	3.9118	1.0024	6.99	1.02	0.750			
0.3283	21011.96	3.9090	3.9092	1.0042	6.98	1.01	0.750			
0.3314	21208.05	3.9060	3.9061	1.0047	6.97	1.00	0.750			
0.3343	21392.24	3.9030	3.9032	1.0651	6.96	0.99	0.750			
0.3374	21596.13	3.9000	3.9001	1.0946	6.95	0.98	0.750			
0.3408	21811.90	3.8970	3.8969	1.1330	6.94	0.97	0.750			
0.3444	22040.85	3.8940	3.8939	1.1533	6.93	0.96	0.750			
0.3481	22275.34	3.8910	3.8915	1.1766	6.92	0.95	0.750			
0.3517	22508.44	3.8880	3.8881	1.1677	6.90	0.93	0.750			
0.3551	22725.86	3.8850	3.8850	1.1519	6.89	0.92	0.750			
0.3583	22931.98	3.8820	3.8821	1.1193	6.88	0.91	0.750			
0.3618	23152.93	3.8790	3.8787	1.1317	6.87	0.90	0.750			
0.3651	23368.94	3.8760	3.8761	1.1423	6.86	0.89	0.750			
0.3686	23587.79	3.8730	3.8731	1.1581	6.85	0.88	0.750			
0.3721	23812.77	3.8700	3.8700	1.1754	6.84	0.87	0.750			
0.3756	24038.90	3.8670	3.8670	1.1828	6.83	0.86	0.750			
0.3792	24266.86	3.8640	3.8641	1.2037	6.81	0.84	0.750			
0.3828	24500.77	3.8610	3.8611	1.2247	6.79	0.82	0.750			
0.3866	24742.25	3.8580	3.8578	1.2316	6.77	0.80	0.750			
0.3903	24976.32	3.8550	3.8550	1.2514	6.76	0.79	0.750			
0.3940	25216.98	3.8520	3.8521	1.2768	6.75	0.78	0.750			
0.3979	25464.75	3.8490	3.8490	1.3018	6.74	0.77	0.750			
0.4018	25715.05	3.8460	3.8461	1.3379	6.72	0.75	0.750			
0.4058	25972.00	3.8430	3.8431	1.3720	6.71	0.74	0.750			
0.4101	26244.36	3.8400	3.8399	1.4007	6.70	0.73	0.750			
0.4144	26520.72	3.8370	3.8366	1.4411	6.68	0.71	0.750	0.423	0.972	
0.4187	26796.89	3.8340	3.8342	1.4581	6.67	0.70	0.750			
0.4232	27082.38	3.8310	3.8309	1.4706	6.66	0.69	0.750			
0.4276	27367.10	3.8280	3.8281	1.4867	6.64	0.67	0.750			
0.4320	27646.75	3.8250	3.8251	1.5092	6.63	0.66	0.750			
0.4366	27940.89	3.8220	3.8219	1.5405	6.61	0.64	0.750			
0.4412	28235.94	3.8190	3.8192	1.5806	6.60	0.63	0.750			
0.4460	28544.06	3.8160	3.8161	1.6131	6.58	0.61	0.750			
0.4510	28861.42	3.8130	3.8131	1.6553	6.57	0.60	0.750			
0.4559	29179.91	3.8100	3.8102	1.7002	6.55	0.58	0.750			
0.4612	29516.80	3.8070	3.8069	1.7152	6.53	0.56	0.750			
0.4664	29847.10	3.8040	3.8038	1.7629	6.51	0.54	0.750			
0.4717	30189.61	3.8010	3.8012	1.7862	6.48	0.51	0.750			
0.4772	30538.95	3.7980	3.7978	1.8134	6.47	0.50	0.750			
0.4826	30888.67	3.7950	3.7952	1.8506	6.46	0.49	0.750			
0.4882	31245.34	3.7920	3.7920	1.9165	6.45	0.48	0.750			
0.4942	31629.84	3.7890	3.7887	1.9065	6.42	0.45	0.750			
0.4999	31994.11	3.7860	3.7861	1.9144	6.39	0.42	0.750			
0.5056	32355.28	3.7830	3.7829	1.9051	6.37	0.40	0.750			
0.5113	32720.18	3.7800	3.7796	1.9327	6.35	0.38	0.750			
0.5170	33087.37	3.7770	3.7771	1.9801	6.33	0.36	0.750			
0.5232	33485.43	3.7740	3.7742	2.0598	6.31	0.34	0.750			
0.5295	33889.45	3.7710	3.7708	2.0948	6.29	0.32	0.750			
0.5360	34300.97	3.7680	3.7681	2.1254	6.27	0.30	0.750			
0.5423	34709.32	3.7650	3.7650	2.1893	6.25	0.28	0.750			
0.5489	35132.76	3.7620	3.7618	2.1738	6.23	0.26	0.750			
0.5554	35547.45	3.7590	3.7593	2.2323	6.21	0.24	0.750			
0.5622	35982.71	3.7560	3.7562	2.1996	6.19	0.22	0.750			
0.5689	36406.79	3.7530	3.7531	2.2908	6.17	0.20	0.750			
0.5759	36859.23	3.7500	3.7497	2.2453	6.15	0.18	0.750			
0.5825	37279.69	3.7470	3.7473	2.2825	6.12	0.15	0.750			
0.5894	37719.87	3.7440	3.7438	2.4215	6.10	0.13	0.750			
0.5966	38184.31	3.7410	3.7410	2.4764	6.08	0.11	0.750			
0.6047	38700.80	3.7380	3.7378	2.6232	6.06	0.09	0.750			
0.6123	39189.91	3.7350	3.7351	2.6442	6.04	0.07	0.750			
0.6204	39704.10	3.7320	3.7321	2.7754	6.02	0.05	0.750			
0.6288	40244.25	3.7290	3.7289	2.8416	6.00	0.03	0.750			
0.6377	40815.44	3.7260	3.7264	2.8429	5.99	0.02	0.750			
0.6462	41354.04	3.7230	3.7231	2.8314	5.98	0.01	0.750			
0.6543	41875.25	3.7200	3.7199	2.5802	5.96	-0.01	0.750			
0.6621	42374.28	3.7170	3.7168	2.5433	5.95	-0.02	0.750			
0.6698	42865.22	3.7140	3.7139	2.4092	5.94	-0.03	0.750			
0.6768	43312.96	3.7110	3.7111	2.2455	5.93	-0.04	0.750			
0.6829	43706.71	3.7080	3.7080	1.9005	5.93	-0.04	0.750			
0.6881	44039.08	3.7050	3.7051	1.6336	5.93	-0.04	0.750			
0.6925	44319.28	3.7020	3.7022	1.4172	5.93	-0.04	0.750			
0.6965	44576.75	3.6990	3.6993	1.2648	5.92	-0.05	0.750			
0.6999	44795.59	3.6960	3.6955	1.1302	5.92	-0.05	0.750			
0.7030	44992.27	3.6930	3.6930	1.0189	5.93	-0.04	0.750			
0.7058	45173.33	3.6900	3.6901	0.9534	5.93	-0.04	0.750			
0.7086	45349.16	3.6870	3.6870	0.9005	5.93	-0.04	0.750			
0.7112	45515.60	3.6840	3.6838	0.8461	5.94	-0.03	0.750			
0.7137	45673.76	3.6810	3.6811	0.8029	5.94	-0.03	0.750			
0.7160	45824.39	3.6780	3.6781	0.7612	5.95	-0.02	0.750			
0.7183	45969.34	3.6750	3.6748	0.7129	5.95	-0.02	0.750			
0.7203	46100.73	3.6720	3.6721	0.6647	5.96	-0.01	0.750			
0.7222	46222.81	3.6690	3.6691	0.6128	5.96	-0.01	0.750			
0.7240	46336.71	3.6660	3.6661	0.5674	5.97	-0.00	0.750			
0.7256	46439.92	3.6630	3.6630	0.5210	5.97	0.00	0.750			
0.7271	46534.11	3.6600	3.6600	0.4759	5.98	0.01	0.750			
0.7285	46621.16	3.6570	3.6569	0.4330	5.98	0.01	0.750			
0.7297	46701.07	3.6540	3.6540	0.3969	5.98	0.01	0.750			
0.7308	46771.60	3.6510	3.6512	0.3561	5.98	0.01	0.750			
0.7318	46837.06	3.6480	3.6478	0.3198	5.99	0.02	0.750			
0.7327	46894.42	3.6450	3.6449	0.2824	5.99	0.02	0.750			
0.7335	46944.99	3.6420	3.6420	0.2424	5.99	0.02	0.750			
0.7342	46988.46	3.6390	3.6389	0.2063	5.99	0.02	0.750			
0.7348	47026.13	3.6360	3.6360	0.1702	5.99	0.02	0.750			
0.7352	47054.37	3.6330	3.6332	0.1293	6.00	0.03	0.750			
0.7355	47074.97	3.6300	3.6306	0.0899	6.00	0.03	0.750			
0.7358	47089.72	3.6270	3.6280	0.0468	6.00	0.03	0.750			
0.7359	47094.54	3.6240	3.6270	0.0034	6.00	0.03	0.750			
