Ah_balance (normalized)	Ah_balance (mAh)	Voltage - fit (V)	Voltage -  interpolate (V)	dQ/dV (1/V)	Temperature (°C)	Temperature - diff (°C)	Current (C)	R_DC 0ms (mOhm)	R_DC 50ms (mOhm)	R_DC 50 ms PEC (mOhm)
0.0944	6042.68	4.0080	4.0075	-0.0333	5.99	0.00	-0.750			
0.0946	6052.80	4.0050	4.0044	-0.0678	5.99	0.00	-0.750			
0.0948	6068.69	4.0020	4.0018	-0.0977	5.99	0.00	-0.750			
0.0952	6091.49	3.9990	3.9988	-0.1246	5.99	0.00	-0.750			
0.0956	6118.16	3.9960	3.9965	-0.1499	5.99	-0.00	-0.750			
0.0961	6149.84	3.9930	3.9930	-0.1721	5.99	-0.00	-0.750			
0.0966	6185.15	3.9900	3.9902	-0.1963	5.99	-0.00	-0.750			
0.0973	6226.78	3.9870	3.9869	-0.2187	5.98	-0.01	-0.750			
0.0980	6270.11	3.9840	3.9841	-0.2396	5.98	-0.01	-0.750			
0.0987	6317.47	3.9810	3.9809	-0.2620	5.98	-0.01	-0.750			
0.0995	6370.34	3.9780	3.9781	-0.2821	5.98	-0.01	-0.750			
0.1004	6427.12	3.9750	3.9747	-0.3006	5.97	-0.02	-0.750			
0.1013	6486.17	3.9720	3.9722	-0.3209	5.97	-0.02	-0.750			
0.1023	6549.43	3.9690	3.9690	-0.3449	5.97	-0.02	-0.750			
0.1034	6615.58	3.9660	3.9661	-0.3747	5.97	-0.02	-0.750			
0.1045	6691.18	3.9630	3.9626	-0.3996	5.96	-0.03	-0.750			
0.1058	6770.67	3.9600	3.9600	-0.4236	5.96	-0.03	-0.750			
0.1071	6857.00	3.9570	3.9570	-0.4427	5.95	-0.04	-0.750			
0.1085	6946.57	3.9540	3.9542	-0.4629	5.95	-0.04	-0.750			
0.1099	7036.24	3.9510	3.9509	-0.4772	5.95	-0.04	-0.750			
0.1114	7126.51	3.9480	3.9480	-0.4888	5.94	-0.05	-0.750			
0.1128	7220.01	3.9450	3.9450	-0.5023	5.94	-0.05	-0.750			
0.1144	7319.66	3.9420	3.9421	-0.5251	5.94	-0.05	-0.750			
0.1160	7424.10	3.9390	3.9389	-0.5394	5.94	-0.05	-0.750			
0.1176	7529.38	3.9360	3.9360	-0.5544	5.93	-0.06	-0.750			
0.1193	7637.78	3.9330	3.9330	-0.5636	5.93	-0.06	-0.750			
0.1210	7746.15	3.9300	3.9301	-0.5719	5.93	-0.06	-0.750			
0.1228	7857.00	3.9270	3.9270	-0.5795	5.93	-0.06	-0.750			
0.1245	7968.72	3.9240	3.9241	-0.5902	5.93	-0.06	-0.750			
0.1263	8081.91	3.9210	3.9209	-0.6030	5.93	-0.06	-0.750			
0.1281	8199.87	3.9180	3.9181	-0.6160	5.93	-0.06	-0.750			
0.1300	8319.35	3.9150	3.9149	-0.6234	5.93	-0.06	-0.750			
0.1319	8441.88	3.9120	3.9120	-0.6322	5.93	-0.06	-0.750			
0.1338	8563.69	3.9090	3.9091	-0.6394	5.93	-0.06	-0.750			
0.1357	8687.17	3.9060	3.9060	-0.6454	5.93	-0.06	-0.750			
0.1377	8811.15	3.9030	3.9029	-0.6489	5.94	-0.05	-0.750			
0.1396	8935.48	3.9000	3.9000	-0.6549	5.94	-0.05	-0.750			
0.1415	9055.75	3.8970	3.8972	-0.6964	5.94	-0.05	-0.750			
0.1436	9190.93	3.8940	3.8939	-0.7264	5.95	-0.04	-0.750			
0.1459	9338.73	3.8910	3.8907	-0.7386	5.95	-0.04	-0.750			
0.1482	9487.58	3.8880	3.8881	-0.7522	5.95	-0.04	-0.750			
0.1506	9637.74	3.8850	3.8853	-0.7475	5.96	-0.03	-0.750			
0.1529	9785.24	3.8820	3.8820	-0.7362	5.96	-0.03	-0.750			
0.1550	9921.63	3.8790	3.8788	-0.7105	5.97	-0.02	-0.750			
0.1570	10047.32	3.8760	3.8759	-0.6860	5.97	-0.02	-0.750			
0.1590	10178.54	3.8730	3.8731	-0.6861	5.97	-0.02	-0.750			
0.1611	10311.07	3.8700	3.8700	-0.6884	5.98	-0.01	-0.750			
0.1632	10443.23	3.8670	3.8670	-0.6892	5.98	-0.01	-0.750			
0.1652	10574.89	3.8640	3.8641	-0.6885	5.99	-0.00	-0.750			
0.1673	10708.55	3.8610	3.8609	-0.6930	5.99	0.00	-0.750			
0.1694	10842.13	3.8580	3.8580	-0.6922	6.00	0.01	-0.750			
0.1715	10975.11	3.8550	3.8551	-0.6936	6.00	0.01	-0.750			
0.1736	11108.24	3.8520	3.8520	-0.6954	6.01	0.02	-0.750			
0.1756	11241.11	3.8490	3.8490	-0.7007	6.01	0.02	-0.750			
0.1777	11375.19	3.8460	3.8460	-0.7008	6.02	0.03	-0.750			
0.1799	11510.54	3.8430	3.8429	-0.7021	6.02	0.03	-0.750			
0.1820	11646.65	3.8400	3.8400	-0.7051	6.03	0.04	-0.750			
0.1841	11782.86	3.8370	3.8370	-0.7043	6.03	0.04	-0.750			
0.1862	11917.29	3.8340	3.8340	-0.7039	6.04	0.05	-0.750			
0.1883	12051.39	3.8310	3.8310	-0.7079	6.04	0.05	-0.750			
0.1904	12186.26	3.8280	3.8280	-0.7052	6.04	0.05	-0.750			
0.1926	12323.49	3.8250	3.8249	-0.7089	6.05	0.06	-0.750			
0.1947	12460.48	3.8220	3.8221	-0.7110	6.05	0.06	-0.750			
0.1968	12597.04	3.8190	3.8190	-0.7090	6.05	0.06	-0.750			
0.1990	12733.53	3.8160	3.8159	-0.7102	6.06	0.07	-0.750			
0.2011	12869.07	3.8130	3.8130	-0.7095	6.07	0.08	-0.750			
0.2032	13003.69	3.8100	3.8100	-0.7080	6.07	0.08	-0.750			
0.2053	13141.08	3.8070	3.8070	-0.7120	6.08	0.09	-0.750			
0.2075	13278.11	3.8040	3.8040	-0.7122	6.09	0.10	-0.750			
0.2096	13414.40	3.8010	3.8010	-0.7145	6.09	0.10	-0.750			
0.2117	13551.95	3.7980	3.7980	-0.7181	6.10	0.11	-0.750			
0.2139	13689.96	3.7950	3.7950	-0.7210	6.11	0.12	-0.750			
0.2161	13828.75	3.7920	3.7920	-0.7221	6.12	0.13	-0.750			
0.2183	13968.18	3.7890	3.7890	-0.7241	6.12	0.13	-0.750			
0.2204	14107.69	3.7860	3.7861	-0.7237	6.13	0.14	-0.750			
0.2226	14246.21	3.7830	3.7830	-0.7257	6.13	0.14	-0.750			
0.2248	14384.65	3.7800	3.7799	-0.7265	6.14	0.15	-0.750			
0.2269	14523.52	3.7770	3.7770	-0.7310	6.14	0.15	-0.750			
0.2291	14664.53	3.7740	3.7739	-0.7366	6.14	0.15	-0.750			
0.2314	14808.09	3.7710	3.7710	-0.7418	6.15	0.16	-0.750			
0.2336	14951.14	3.7680	3.7681	-0.7427	6.15	0.16	-0.750			
0.2358	15094.17	3.7650	3.7650	-0.7473	6.16	0.17	-0.750			
0.2381	15237.70	3.7620	3.7620	-0.7508	6.17	0.18	-0.750			
0.2403	15381.37	3.7590	3.7589	-0.7532	6.17	0.18	-0.750			
0.2426	15526.73	3.7560	3.7560	-0.7590	6.18	0.19	-0.750			
0.2449	15672.40	3.7530	3.7531	-0.7634	6.19	0.20	-0.750			
0.2472	15820.40	3.7500	3.7499	-0.7680	6.19	0.20	-0.750			
0.2495	15967.73	3.7470	3.7470	-0.7729	6.20	0.21	-0.750			
0.2518	16115.88	3.7440	3.7440	-0.7734	6.20	0.21	-0.750			
0.2541	16264.81	3.7410	3.7410	-0.7777	6.20	0.21	-0.750			
0.2565	16415.22	3.7380	3.7379	-0.7830	6.21	0.22	-0.750			
0.2588	16565.24	3.7350	3.7351	-0.7882	6.21	0.22	-0.750			
0.2612	16716.31	3.7320	3.7320	-0.7929	6.22	0.23	-0.750			
0.2636	16869.24	3.7290	3.7290	-0.8007	6.22	0.23	-0.750			
0.2660	17024.21	3.7260	3.7260	-0.8031	6.23	0.24	-0.750			
0.2684	17179.64	3.7230	3.7229	-0.8102	6.23	0.24	-0.750			
0.2709	17335.97	3.7200	3.7201	-0.8163	6.24	0.25	-0.750			
0.2733	17492.80	3.7170	3.7170	-0.8218	6.24	0.25	-0.750			
0.2758	17650.32	3.7140	3.7139	-0.8282	6.24	0.25	-0.750			
0.2783	17810.74	3.7110	3.7110	-0.8345	6.25	0.26	-0.750			
0.2808	17971.18	3.7080	3.7080	-0.8402	6.25	0.26	-0.750			
0.2833	18133.67	3.7050	3.7051	-0.8480	6.25	0.26	-0.750			
0.2859	18296.83	3.7020	3.7020	-0.8537	6.25	0.26	-0.750			
0.2885	18461.12	3.6990	3.6990	-0.8604	6.26	0.27	-0.750			
0.2910	18626.98	3.6960	3.6960	-0.8648	6.26	0.27	-0.750			
0.2937	18794.66	3.6930	3.6929	-0.8716	6.27	0.28	-0.750			
0.2963	18962.36	3.6900	3.6901	-0.8757	6.27	0.28	-0.750			
0.2989	19129.65	3.6870	3.6870	-0.8834	6.28	0.29	-0.750			
0.3016	19299.22	3.6840	3.6840	-0.8920	6.28	0.29	-0.750			
0.3042	19471.13	3.6810	3.6809	-0.8993	6.28	0.29	-0.750			
0.3070	19644.81	3.6780	3.6780	-0.9097	6.29	0.30	-0.750			
0.3097	19821.35	3.6750	3.6750	-0.9172	6.29	0.30	-0.750			
0.3125	19999.49	3.6720	3.6720	-0.9269	6.30	0.31	-0.750			
0.3153	20178.32	3.6690	3.6690	-0.9294	6.30	0.31	-0.750			
0.3181	20355.92	3.6660	3.6660	-0.9322	6.31	0.32	-0.750			
0.3209	20535.47	3.6630	3.6631	-0.9396	6.31	0.32	-0.750			
0.3237	20716.27	3.6600	3.6599	-0.9480	6.32	0.33	-0.750			
0.3265	20898.19	3.6570	3.6570	-0.9559	6.32	0.33	-0.750			
0.3294	21082.52	3.6540	3.6539	-0.9657	6.32	0.33	-0.750			
0.3323	21269.96	3.6510	3.6510	-0.9752	6.33	0.34	-0.750			
0.3353	21458.20	3.6480	3.6479	-0.9846	6.33	0.34	-0.750			
0.3382	21647.79	3.6450	3.6450	-0.9892	6.33	0.34	-0.750			
0.3412	21838.16	3.6420	3.6420	-0.9956	6.33	0.34	-0.750			
0.3442	22028.98	3.6390	3.6389	-1.0006	6.33	0.34	-0.750			
0.3472	22222.02	3.6360	3.6360	-1.0068	6.33	0.34	-0.750			
0.3503	22416.57	3.6330	3.6330	-1.0149	6.34	0.35	-0.750			
0.3533	22612.85	3.6300	3.6300	-1.0235	6.34	0.35	-0.750			
0.3564	22808.11	3.6270	3.6270	-1.0268	6.35	0.36	-0.750			
0.3595	23008.20	3.6240	3.6239	-1.0399	6.35	0.36	-0.750			
0.3626	23207.85	3.6210	3.6210	-1.0463	6.36	0.37	-0.750			
0.3658	23409.40	3.6180	3.6180	-1.0565	6.36	0.37	-0.750			
0.3689	23612.50	3.6150	3.6151	-1.0627	6.37	0.38	-0.750			
0.3722	23819.08	3.6120	3.6119	-1.0785	6.37	0.38	-0.750			
0.3754	24026.56	3.6090	3.6090	-1.0848	6.37	0.38	-0.750			
0.3787	24235.79	3.6060	3.6060	-1.0931	6.37	0.38	-0.750			
0.3820	24446.57	3.6030	3.6030	-1.1040	6.37	0.38	-0.750			
0.3853	24659.54	3.6000	3.6000	-1.1166	6.37	0.38	-0.750			
0.3887	24873.85	3.5970	3.5969	-1.1257	6.38	0.39	-0.750			
0.3921	25092.69	3.5940	3.5940	-1.1323	6.38	0.39	-0.750			
0.3955	25309.94	3.5910	3.5912	-1.1392	6.39	0.40	-0.750			
0.3989	25531.81	3.5880	3.5879	-1.1482	6.39	0.40	-0.750			
0.4024	25752.13	3.5850	3.5852	-1.1514	6.39	0.40	-0.750	0.448	1.036	
0.4058	25970.85	3.5820	3.5820	-1.1568	6.39	0.40	-0.750			
0.4093	26194.11	3.5790	3.5790	-1.1695	6.39	0.40	-0.750			
0.4128	26420.27	3.5760	3.5760	-1.1764	6.39	0.40	-0.750			
0.4164	26647.35	3.5730	3.5730	-1.1906	6.39	0.40	-0.750			
0.4199	26875.98	3.5700	3.5700	-1.2010	6.39	0.40	-0.750			
0.4236	27108.78	3.5670	3.5669	-1.2148	6.40	0.41	-0.750			
0.4272	27341.78	3.5640	3.5640	-1.2257	6.41	0.42	-0.750			
0.4309	27576.56	3.5610	3.5610	-1.2424	6.42	0.43	-0.750			
0.4347	27817.61	3.5580	3.5581	-1.2550	6.43	0.44	-0.750			
0.4385	28062.72	3.5550	3.5549	-1.2667	6.43	0.44	-0.750			
0.4423	28305.19	3.5520	3.5520	-1.2757	6.43	0.44	-0.750			
0.4461	28551.95	3.5490	3.5491	-1.2889	6.43	0.44	-0.750			
0.4500	28801.43	3.5460	3.5459	-1.2972	6.44	0.45	-0.750			
0.4539	29051.38	3.5430	3.5430	-1.3052	6.44	0.45	-0.750			
0.4578	29302.24	3.5400	3.5402	-1.3165	6.45	0.46	-0.750			
0.4618	29557.46	3.5370	3.5369	-1.3286	6.45	0.46	-0.750			
0.4658	29812.58	3.5340	3.5339	-1.3336	6.46	0.47	-0.750			
0.4698	30066.24	3.5310	3.5311	-1.3423	6.46	0.47	-0.750			
0.4739	30327.92	3.5280	3.5280	-1.3583	6.46	0.47	-0.750			
0.4779	30587.72	3.5250	3.5249	-1.3695	6.47	0.48	-0.750			
0.4821	30851.59	3.5220	3.5220	-1.3825	6.47	0.48	-0.750			
0.4862	31118.85	3.5190	3.5190	-1.3951	6.48	0.49	-0.750			
0.4905	31391.18	3.5160	3.5159	-1.4043	6.48	0.49	-0.750			
0.4947	31662.36	3.5130	3.5131	-1.4083	6.49	0.50	-0.750			
0.4989	31931.89	3.5100	3.5100	-1.4083	6.50	0.51	-0.750			
0.5032	32203.72	3.5070	3.5070	-1.4171	6.50	0.51	-0.750			
0.5074	32473.79	3.5040	3.5040	-1.4248	6.51	0.52	-0.750			
0.5117	32748.68	3.5010	3.5009	-1.4254	6.52	0.53	-0.750			
0.5160	33024.98	3.4980	3.4980	-1.4340	6.52	0.53	-0.750			
0.5203	33301.19	3.4950	3.4952	-1.4425	6.53	0.54	-0.750			
0.5247	33578.87	3.4920	3.4920	-1.4460	6.54	0.55	-0.750			
0.5290	33857.08	3.4890	3.4889	-1.4493	6.55	0.56	-0.750			
0.5334	34134.93	3.4860	3.4861	-1.4543	6.56	0.57	-0.750			
0.5377	34415.50	3.4830	3.4830	-1.4612	6.57	0.58	-0.750			
0.5421	34697.25	3.4800	3.4800	-1.4636	6.58	0.59	-0.750			
0.5465	34978.69	3.4770	3.4770	-1.4616	6.59	0.60	-0.750			
0.5510	35261.01	3.4740	3.4739	-1.4606	6.60	0.61	-0.750			
0.5553	35539.28	3.4710	3.4710	-1.4645	6.61	0.62	-0.750			
0.5597	35821.84	3.4680	3.4680	-1.4568	6.63	0.64	-0.750			
0.5641	36103.11	3.4650	3.4649	-1.4526	6.64	0.65	-0.750			
0.5685	36382.32	3.4620	3.4619	-1.4347	6.65	0.66	-0.750			
0.5728	36658.98	3.4590	3.4590	-1.4071	6.67	0.68	-0.750			
0.5770	36925.85	3.4560	3.4560	-1.3877	6.68	0.69	-0.750			
0.5810	37186.66	3.4530	3.4532	-1.3737	6.69	0.70	-0.750			
0.5851	37443.56	3.4500	3.4498	-1.3580	6.70	0.71	-0.750			
0.5892	37705.97	3.4470	3.4469	-1.3650	6.71	0.72	-0.750			
0.5932	37966.27	3.4440	3.4441	-1.3634	6.72	0.73	-0.750			
0.5974	38234.85	3.4410	3.4410	-1.3670	6.73	0.74	-0.750			
0.6015	38498.56	3.4380	3.4380	-1.3567	6.74	0.75	-0.750			
0.6055	38754.66	3.4350	3.4350	-1.3387	6.75	0.76	-0.750			
0.6095	39011.14	3.4320	3.4321	-1.3234	6.76	0.77	-0.750			
0.6135	39264.99	3.4290	3.4289	-1.3029	6.78	0.79	-0.750			
0.6174	39513.25	3.4260	3.4259	-1.2806	6.80	0.81	-0.750			
0.6212	39756.72	3.4230	3.4232	-1.2576	6.81	0.82	-0.750			
0.6250	39998.47	3.4200	3.4200	-1.2382	6.83	0.84	-0.750			
0.6286	40233.39	3.4170	3.4170	-1.2113	6.85	0.86	-0.750			
0.6322	40463.09	3.4140	3.4140	-1.1866	6.87	0.88	-0.750			
0.6358	40688.57	3.4110	3.4110	-1.1659	6.88	0.89	-0.750			
0.6392	40910.92	3.4080	3.4079	-1.1404	6.89	0.90	-0.750			
0.6426	41127.39	3.4050	3.4050	-1.1137	6.91	0.92	-0.750			
0.6459	41338.03	3.4020	3.4021	-1.0891	6.92	0.93	-0.750			
0.6492	41546.21	3.3990	3.3990	-1.0653	6.93	0.94	-0.750			
0.6523	41748.17	3.3960	3.3959	-1.0389	6.95	0.96	-0.750			
0.6554	41943.61	3.3930	3.3930	-1.0130	6.96	0.97	-0.750			
0.6584	42136.63	3.3900	3.3901	-0.9881	6.97	0.98	-0.750			
0.6613	42323.81	3.3870	3.3870	-0.9633	6.99	1.00	-0.750			
0.6642	42506.51	3.3840	3.3840	-0.9369	7.00	1.01	-0.750			
0.6669	42683.07	3.3810	3.3810	-0.9125	7.01	1.02	-0.750			
0.6696	42856.56	3.3780	3.3780	-0.8884	7.03	1.04	-0.750			
0.6723	43024.07	3.3750	3.3750	-0.8662	7.04	1.05	-0.750			
0.6748	43187.45	3.3720	3.3720	-0.8497	7.05	1.06	-0.750			
0.6773	43349.70	3.3690	3.3690	-0.8329	7.07	1.08	-0.750			
0.6798	43507.39	3.3660	3.3659	-0.8121	7.08	1.09	-0.750			
0.6822	43662.75	3.3630	3.3629	-0.7958	7.10	1.11	-0.750			
0.6846	43813.56	3.3600	3.3599	-0.7755	7.11	1.12	-0.750			
0.6869	43960.94	3.3570	3.3569	-0.7569	7.12	1.13	-0.750			
0.6891	44103.43	3.3540	3.3540	-0.7341	7.14	1.15	-0.750			
0.6913	44241.45	3.3510	3.3510	-0.7119	7.15	1.16	-0.750			
0.6934	44377.76	3.3480	3.3480	-0.6998	7.17	1.18	-0.750			
0.6955	44509.97	3.3450	3.3450	-0.6848	7.18	1.19	-0.750			
0.6975	44639.04	3.3420	3.3419	-0.6676	7.19	1.20	-0.750			
0.6995	44765.78	3.3390	3.3391	-0.6537	7.21	1.22	-0.750			
0.7014	44889.94	3.3360	3.3361	-0.6410	7.22	1.23	-0.750			
0.7033	45012.67	3.3330	3.3329	-0.6261	7.23	1.24	-0.750			
0.7052	45132.32	3.3300	3.3300	-0.6092	7.24	1.25	-0.750			
0.7070	45246.92	3.3270	3.3270	-0.5939	7.25	1.26	-0.750			
0.7087	45359.32	3.3240	3.3240	-0.5757	7.26	1.27	-0.750			
