Ah_balance (normalized)	Ah_balance (mAh)	Voltage - fit (V)	Voltage -  interpolate (V)	dQ/dV (1/V)	Temperature (°C)	Temperature - diff (°C)	Current (C)	R_DC 0ms (mOhm)	R_DC 50ms (mOhm)	R_DC 50 ms PEC (mOhm)
0.1814	11610.51	4.0790	4.0790	0.7649	7.24	1.25	0.750			
0.1837	11757.66	4.0760	4.0760	0.7684	7.24	1.25	0.750			
0.1860	11905.26	4.0730	4.0731	0.7720	7.23	1.24	0.750			
0.1883	12053.94	4.0700	4.0701	0.7765	7.23	1.24	0.750			
0.1907	12205.57	4.0670	4.0670	0.7747	7.22	1.23	0.750			
0.1930	12352.97	4.0640	4.0640	0.7759	7.22	1.23	0.750			
0.1954	12502.73	4.0610	4.0611	0.7859	7.22	1.23	0.750			
0.1977	12652.56	4.0580	4.0581	0.7868	7.21	1.22	0.750			
0.2001	12803.86	4.0550	4.0548	0.7923	7.21	1.22	0.750			
0.2025	12957.15	4.0520	4.0521	0.7947	7.20	1.21	0.750			
0.2049	13111.20	4.0490	4.0490	0.7933	7.19	1.20	0.750			
0.2072	13262.93	4.0460	4.0461	0.8004	7.19	1.20	0.750			
0.2096	13415.00	4.0430	4.0431	0.8006	7.18	1.19	0.750			
0.2120	13569.06	4.0400	4.0397	0.8046	7.17	1.18	0.750			
0.2144	13724.78	4.0370	4.0371	0.8081	7.17	1.18	0.750			
0.2169	13880.01	4.0340	4.0341	0.8127	7.17	1.18	0.750			
0.2194	14038.98	4.0310	4.0310	0.8179	7.17	1.18	0.750			
0.2218	14195.26	4.0280	4.0280	0.8133	7.17	1.18	0.750			
0.2242	14350.12	4.0250	4.0250	0.8174	7.17	1.18	0.750			
0.2267	14507.77	4.0220	4.0220	0.8220	7.16	1.17	0.750			
0.2292	14666.99	4.0190	4.0190	0.8227	7.16	1.17	0.750			
0.2316	14824.64	4.0160	4.0160	0.8283	7.15	1.16	0.750			
0.2341	14983.17	4.0130	4.0131	0.8280	7.14	1.15	0.750			
0.2366	15143.70	4.0100	4.0099	0.8333	7.13	1.14	0.750			
0.2391	15303.56	4.0070	4.0070	0.8351	7.13	1.14	0.750			
0.2416	15463.49	4.0040	4.0041	0.8312	7.13	1.14	0.750			
0.2441	15621.66	4.0010	4.0011	0.8430	7.12	1.13	0.750			
0.2466	15782.57	3.9980	3.9980	0.8492	7.12	1.13	0.750			
0.2492	15948.44	3.9950	3.9946	0.8499	7.12	1.13	0.750			
0.2518	16116.29	3.9920	3.9921	0.8551	7.11	1.12	0.750			
0.2544	16281.48	3.9890	3.9891	0.8495	7.11	1.12	0.750			
0.2570	16448.60	3.9860	3.9861	0.8436	7.10	1.11	0.750			
0.2594	16603.94	3.9830	3.9835	0.8281	7.10	1.11	0.750			
0.2619	16759.96	3.9800	3.9800	0.8270	7.09	1.10	0.750			
0.2643	16915.42	3.9770	3.9768	0.8275	7.09	1.10	0.750			
0.2668	17074.26	3.9740	3.9748	0.8455	7.08	1.09	0.750			
0.2693	17236.97	3.9710	3.9719	0.8593	7.08	1.09	0.750			
0.2720	17404.95	3.9680	3.9692	0.9023	7.07	1.08	0.750			
0.2748	17584.09	3.9650	3.9657	0.9252	7.07	1.08	0.750			
0.2776	17767.90	3.9620	3.9625	0.9245	7.07	1.08	0.750			
0.2805	17950.93	3.9590	3.9595	0.9379	7.06	1.07	0.750			
0.2833	18128.88	3.9560	3.9562	0.9246	7.06	1.07	0.750			
0.2860	18306.45	3.9530	3.9529	0.9202	7.05	1.06	0.750			
0.2887	18477.49	3.9500	3.9500	0.9177	7.05	1.06	0.750			
0.2914	18649.87	3.9470	3.9471	0.9102	7.04	1.05	0.750			
0.2941	18825.33	3.9440	3.9440	0.9243	7.04	1.05	0.750			
0.2970	19009.50	3.9410	3.9410	0.9373	7.03	1.04	0.750			
0.2998	19185.70	3.9380	3.9377	0.9313	7.03	1.04	0.750			
0.3026	19367.98	3.9350	3.9351	0.9281	7.02	1.03	0.750			
0.3054	19544.53	3.9320	3.9321	0.9373	7.01	1.02	0.750			
0.3082	19722.74	3.9290	3.9289	0.9451	7.00	1.01	0.750			
0.3110	19904.38	3.9260	3.9260	0.9498	6.99	1.00	0.750			
0.3139	20089.89	3.9230	3.9231	0.9513	6.99	1.00	0.750			
0.3168	20274.82	3.9200	3.9201	0.9689	6.98	0.99	0.750			
0.3197	20460.19	3.9170	3.9171	0.9813	6.98	0.99	0.750			
0.3227	20650.85	3.9140	3.9140	0.9906	6.97	0.98	0.750			
0.3256	20839.31	3.9110	3.9111	0.9886	6.97	0.98	0.750			
0.3286	21030.24	3.9080	3.9081	1.0030	6.96	0.97	0.750			
0.3316	21225.50	3.9050	3.9052	1.0150	6.95	0.96	0.750			
0.3347	21421.88	3.9020	3.9020	1.0246	6.94	0.95	0.750			
0.3378	21618.11	3.8990	3.8991	1.0281	6.93	0.94	0.750			
0.3409	21816.13	3.8960	3.8960	1.0394	6.92	0.93	0.750			
0.3440	22015.91	3.8930	3.8930	1.0586	6.91	0.92	0.750			
0.3472	22221.24	3.8900	3.8901	1.0701	6.90	0.91	0.750			
0.3505	22430.65	3.8870	3.8868	1.0688	6.89	0.90	0.750			
0.3537	22636.51	3.8840	3.8840	1.0832	6.88	0.89	0.750			
0.3569	22843.81	3.8810	3.8812	1.0984	6.88	0.89	0.750			
0.3602	23054.80	3.8780	3.8781	1.1180	6.87	0.88	0.750			
0.3636	23270.05	3.8750	3.8750	1.1358	6.87	0.88	0.750			
0.3669	23484.28	3.8720	3.8720	1.1297	6.86	0.87	0.750			
0.3704	23704.52	3.8690	3.8692	1.1526	6.86	0.87	0.750			
0.3739	23929.82	3.8660	3.8657	1.1673	6.85	0.86	0.750			
0.3774	24152.02	3.8630	3.8632	1.1836	6.84	0.85	0.750			
0.3809	24379.76	3.8600	3.8601	1.2021	6.83	0.84	0.750			
0.3846	24614.46	3.8570	3.8570	1.2275	6.82	0.83	0.750			
0.3885	24861.17	3.8540	3.8540	1.2540	6.81	0.82	0.750			
0.3921	25093.22	3.8510	3.8511	1.2460	6.79	0.80	0.750			
0.3958	25333.94	3.8480	3.8481	1.2686	6.78	0.79	0.750			
0.3996	25576.77	3.8450	3.8448	1.2880	6.77	0.78	0.750			
0.4034	25818.42	3.8420	3.8420	1.3199	6.76	0.77	0.750			
0.4074	26076.12	3.8390	3.8391	1.3656	6.74	0.75	0.750			
0.4116	26344.89	3.8360	3.8356	1.3906	6.73	0.74	0.750	0.349	0.887	
0.4159	26619.71	3.8330	3.8333	1.4134	6.72	0.73	0.750			
0.4202	26895.60	3.8300	3.8301	1.4457	6.71	0.72	0.750			
0.4247	27179.25	3.8270	3.8265	1.4626	6.70	0.71	0.750			
0.4289	27452.34	3.8240	3.8242	1.4609	6.68	0.69	0.750			
0.4335	27741.27	3.8210	3.8210	1.4905	6.66	0.67	0.750			
0.4380	28029.36	3.8180	3.8181	1.5349	6.65	0.66	0.750			
0.4425	28319.47	3.8150	3.8151	1.5559	6.63	0.64	0.750			
0.4473	28625.87	3.8120	3.8121	1.5992	6.62	0.63	0.750			
0.4521	28933.71	3.8090	3.8091	1.6183	6.60	0.61	0.750			
0.4570	29249.40	3.8060	3.8059	1.6805	6.59	0.60	0.750			
0.4622	29581.50	3.8030	3.8030	1.6970	6.57	0.58	0.750			
0.4674	29914.81	3.8000	3.7998	1.6936	6.55	0.56	0.750			
0.4726	30243.40	3.7970	3.7971	1.7597	6.54	0.55	0.750			
0.4778	30578.86	3.7940	3.7942	1.7942	6.52	0.53	0.750			
0.4833	30930.18	3.7910	3.7912	1.8034	6.50	0.51	0.750			
0.4888	31280.03	3.7880	3.7881	1.8465	6.48	0.49	0.750			
0.4943	31637.46	3.7850	3.7852	1.8614	6.47	0.48	0.750			
0.4998	31988.51	3.7820	3.7820	1.8868	6.45	0.46	0.750			
0.5057	32361.62	3.7790	3.7787	1.9452	6.43	0.44	0.750			
0.5116	32740.76	3.7760	3.7758	1.9737	6.41	0.42	0.750			
0.5174	33114.81	3.7730	3.7730	1.9649	6.39	0.40	0.750			
0.5234	33497.45	3.7700	3.7700	1.9728	6.36	0.37	0.750			
0.5294	33883.36	3.7670	3.7670	1.9715	6.35	0.36	0.750			
0.5355	34269.13	3.7640	3.7641	2.0221	6.33	0.34	0.750			
0.5415	34658.90	3.7610	3.7611	2.0441	6.31	0.32	0.750			
0.5478	35057.68	3.7580	3.7582	2.0876	6.28	0.29	0.750			
0.5540	35458.96	3.7550	3.7550	2.1204	6.26	0.27	0.750			
0.5603	35861.90	3.7520	3.7521	2.1147	6.24	0.25	0.750			
0.5669	36281.52	3.7490	3.7491	2.1700	6.23	0.24	0.750			
0.5735	36703.22	3.7460	3.7460	2.2067	6.21	0.22	0.750			
0.5801	37125.49	3.7430	3.7429	2.2829	6.19	0.20	0.750			
0.5872	37581.28	3.7400	3.7400	2.3555	6.17	0.18	0.750			
0.5944	38040.09	3.7370	3.7371	2.4238	6.15	0.16	0.750			
0.6020	38526.45	3.7340	3.7338	2.4920	6.12	0.13	0.750			
0.6095	39006.40	3.7310	3.7309	2.5013	6.10	0.11	0.750			
0.6170	39489.93	3.7280	3.7282	2.5412	6.07	0.08	0.750			
0.6244	39962.63	3.7250	3.7250	2.5326	6.05	0.06	0.750			
0.6322	40460.63	3.7220	3.7221	2.5777	6.04	0.05	0.750			
0.6401	40964.07	3.7190	3.7190	2.5467	6.02	0.03	0.750			
0.6476	41446.14	3.7160	3.7160	2.3801	6.00	0.01	0.750			
0.6546	41895.28	3.7130	3.7130	2.2303	5.98	-0.01	0.750			
0.6610	42304.25	3.7100	3.7099	1.9912	5.97	-0.02	0.750			
0.6665	42657.14	3.7070	3.7074	1.7651	5.97	-0.02	0.750			
0.6714	42970.85	3.7040	3.7041	1.5714	5.96	-0.03	0.750			
0.6758	43253.76	3.7010	3.7012	1.4011	5.96	-0.03	0.750			
0.6797	43502.99	3.6980	3.6980	1.2514	5.96	-0.03	0.750			
0.6832	43721.77	3.6950	3.6952	1.1274	5.95	-0.04	0.750			
0.6863	43923.84	3.6920	3.6918	1.0471	5.95	-0.04	0.750			
0.6892	44108.17	3.6890	3.6889	0.9623	5.95	-0.04	0.750			
0.6919	44283.27	3.6860	3.6860	0.9122	5.95	-0.04	0.750			
0.6946	44453.99	3.6830	3.6831	0.8762	5.96	-0.03	0.750			
0.6972	44618.74	3.6800	3.6800	0.8448	5.96	-0.03	0.750			
0.6996	44777.16	3.6770	3.6768	0.8065	5.96	-0.03	0.750			
0.7020	44928.44	3.6740	3.6741	0.7726	5.96	-0.03	0.750			
0.7043	45073.68	3.6710	3.6711	0.7383	5.96	-0.03	0.750			
0.7065	45214.72	3.6680	3.6680	0.6978	5.97	-0.02	0.750			
0.7085	45343.89	3.6650	3.6650	0.6586	5.97	-0.02	0.750			
0.7104	45464.99	3.6620	3.6621	0.6161	5.97	-0.02	0.750			
0.7121	45576.45	3.6590	3.6588	0.5913	5.97	-0.02	0.750			
0.7139	45686.86	3.6560	3.6560	0.5615	5.97	-0.02	0.750			
0.7155	45791.98	3.6530	3.6529	0.5284	5.98	-0.01	0.750			
0.7171	45895.00	3.6500	3.6500	0.4909	5.98	-0.01	0.750			
0.7186	45988.22	3.6470	3.6473	0.4476	5.98	-0.01	0.750			
0.7198	46070.37	3.6440	3.6439	0.3978	5.98	-0.01	0.750			
0.7210	46140.85	3.6410	3.6409	0.3490	5.98	-0.01	0.750			
0.7219	46199.27	3.6380	3.6380	0.2963	5.99	-0.00	0.750			
0.7227	46251.64	3.6350	3.6351	0.2592	5.99	-0.00	0.750			
0.7234	46297.76	3.6320	3.6320	0.2217	5.99	-0.00	0.750			
0.7240	46336.38	3.6290	3.6294	0.1837	5.99	-0.00	0.750			
0.7245	46367.57	3.6260	3.6266	0.1462	5.99	0.00	0.750			
0.7249	46391.55	3.6230	3.6239	0.1102	5.99	0.00	0.750			
0.7251	46405.40	3.6200	3.6221	0.0778	5.99	0.00	0.750			
0.7253	46417.11	3.6170	3.6198	0.0526	5.99	0.00	0.750			
0.7254	46424.78	3.6140	3.6175	0.0273	5.99	0.00	0.750			
