Ah_balance (normalized)	Ah_balance (mAh)	Voltage - fit (V)	Voltage -  interpolate (V)	dQ/dV (1/V)	Temperature (°C)	Temperature - diff (°C)	Current (C)	R_DC 0ms (mOhm)	R_DC 50ms (mOhm)	R_DC 50 ms PEC (mOhm)
-0.0408	-2608.28	4.0030	4.0026	-0.0668	5.99	0.00	-0.750			
-0.0405	-2592.54	4.0000	3.9998	-0.0972	5.99	0.00	-0.750			
-0.0402	-2570.28	3.9970	3.9969	-0.1271	5.99	0.00	-0.750			
-0.0397	-2542.87	3.9940	3.9940	-0.1540	5.99	0.00	-0.750			
-0.0392	-2510.65	3.9910	3.9911	-0.1802	5.99	0.00	-0.750			
-0.0386	-2473.26	3.9880	3.9880	-0.2044	5.99	0.00	-0.750			
-0.0380	-2430.64	3.9850	3.9850	-0.2291	5.99	0.00	-0.750			
-0.0373	-2384.85	3.9820	3.9820	-0.2535	5.99	0.00	-0.750			
-0.0365	-2334.15	3.9790	3.9790	-0.2778	5.99	0.00	-0.750			
-0.0356	-2278.63	3.9760	3.9760	-0.3043	5.99	0.00	-0.750			
-0.0347	-2218.00	3.9730	3.9730	-0.3303	5.99	0.00	-0.750			
-0.0336	-2151.92	3.9700	3.9700	-0.3555	5.99	0.00	-0.750			
-0.0325	-2080.84	3.9670	3.9670	-0.3815	5.99	0.00	-0.750			
-0.0313	-2005.50	3.9640	3.9641	-0.4091	5.99	0.00	-0.750			
-0.0301	-1924.57	3.9610	3.9610	-0.4354	5.99	0.00	-0.750			
-0.0287	-1838.40	3.9580	3.9580	-0.4610	5.99	0.00	-0.750			
-0.0273	-1747.32	3.9550	3.9550	-0.4871	5.99	0.00	-0.750			
-0.0258	-1650.69	3.9520	3.9521	-0.5131	5.99	0.00	-0.750			
-0.0242	-1549.36	3.9490	3.9490	-0.5377	5.99	0.00	-0.750			
-0.0226	-1443.95	3.9460	3.9460	-0.5632	5.99	0.00	-0.750			
-0.0208	-1333.48	3.9430	3.9430	-0.5856	5.99	0.00	-0.750			
-0.0190	-1218.07	3.9400	3.9400	-0.6072	5.99	0.00	-0.750			
-0.0172	-1098.45	3.9370	3.9370	-0.6224	5.99	0.00	-0.750			
-0.0153	-976.94	3.9340	3.9340	-0.6395	5.99	0.00	-0.750			
-0.0133	-853.01	3.9310	3.9310	-0.6585	5.99	0.00	-0.750			
-0.0113	-723.75	3.9280	3.9279	-0.6711	5.99	0.00	-0.750			
-0.0093	-593.64	3.9250	3.9249	-0.6814	5.99	0.00	-0.750			
-0.0072	-460.97	3.9220	3.9221	-0.6931	5.99	0.00	-0.750			
-0.0051	-325.98	3.9190	3.9190	-0.7061	5.99	0.00	-0.750			
-0.0030	-189.08	3.9160	3.9159	-0.7138	6.00	0.01	-0.750			
-0.0008	-52.35	3.9130	3.9129	-0.7190	6.01	0.02	-0.750			
0.0013	86.00	3.9100	3.9100	-0.7267	6.02	0.03	-0.750			
0.0036	228.25	3.9070	3.9070	-0.7367	6.02	0.03	-0.750			
0.0058	369.47	3.9040	3.9041	-0.7403	6.03	0.04	-0.750			
0.0080	512.11	3.9010	3.9010	-0.7457	6.03	0.04	-0.750			
0.0102	655.51	3.8980	3.8980	-0.7504	6.04	0.05	-0.750			
0.0125	800.45	3.8950	3.8950	-0.7575	6.05	0.06	-0.750			
0.0148	946.46	3.8920	3.8920	-0.7625	6.05	0.06	-0.750			
0.0171	1093.90	3.8890	3.8890	-0.7675	6.06	0.07	-0.750			
0.0194	1241.98	3.8860	3.8860	-0.7716	6.06	0.07	-0.750			
0.0217	1389.64	3.8830	3.8830	-0.7772	6.07	0.08	-0.750			
0.0241	1539.71	3.8800	3.8800	-0.7810	6.08	0.09	-0.750			
0.0264	1690.95	3.8770	3.8770	-0.7823	6.09	0.10	-0.750			
0.0288	1841.18	3.8740	3.8740	-0.7836	6.10	0.11	-0.750			
0.0311	1991.83	3.8710	3.8711	-0.7867	6.11	0.12	-0.750			
0.0335	2143.06	3.8680	3.8680	-0.7874	6.12	0.13	-0.750			
0.0358	2294.14	3.8650	3.8650	-0.7884	6.13	0.14	-0.750			
0.0382	2445.77	3.8620	3.8620	-0.7870	6.13	0.14	-0.750			
0.0406	2597.35	3.8590	3.8591	-0.7916	6.14	0.15	-0.750			
0.0430	2749.89	3.8560	3.8561	-0.7910	6.15	0.16	-0.750			
0.0453	2900.83	3.8530	3.8529	-0.7929	6.16	0.17	-0.750			
0.0477	3053.31	3.8500	3.8500	-0.7937	6.17	0.18	-0.750			
0.0501	3205.21	3.8470	3.8470	-0.7958	6.18	0.19	-0.750			
0.0525	3357.60	3.8440	3.8440	-0.8006	6.19	0.20	-0.750			
0.0549	3513.04	3.8410	3.8410	-0.8052	6.20	0.21	-0.750			
0.0573	3667.70	3.8380	3.8379	-0.8044	6.22	0.23	-0.750			
0.0597	3823.54	3.8350	3.8350	-0.8068	6.23	0.24	-0.750			
0.0622	3977.90	3.8320	3.8321	-0.8050	6.23	0.24	-0.750			
0.0646	4132.98	3.8290	3.8290	-0.8075	6.24	0.25	-0.750			
0.0670	4287.30	3.8260	3.8260	-0.8072	6.25	0.26	-0.750			
0.0694	4440.67	3.8230	3.8230	-0.8072	6.26	0.27	-0.750			
0.0718	4596.13	3.8200	3.8200	-0.8117	6.27	0.28	-0.750			
0.0743	4753.89	3.8170	3.8170	-0.8147	6.28	0.29	-0.750			
0.0767	4910.47	3.8140	3.8140	-0.8151	6.29	0.30	-0.750			
0.0792	5067.07	3.8110	3.8110	-0.8170	6.30	0.31	-0.750			
0.0816	5223.54	3.8080	3.8080	-0.8174	6.31	0.32	-0.750			
0.0841	5380.88	3.8050	3.8050	-0.8188	6.32	0.33	-0.750			
0.0865	5537.88	3.8020	3.8020	-0.8193	6.34	0.35	-0.750			
0.0890	5695.65	3.7990	3.7990	-0.8205	6.35	0.36	-0.750			
0.0915	5854.02	3.7960	3.7960	-0.8210	6.36	0.37	-0.750			
0.0939	6010.77	3.7930	3.7930	-0.8219	6.37	0.38	-0.750			
0.0964	6168.06	3.7900	3.7900	-0.8228	6.38	0.39	-0.750			
0.0989	6326.71	3.7870	3.7870	-0.8251	6.39	0.40	-0.750			
0.1013	6486.16	3.7840	3.7839	-0.8238	6.40	0.41	-0.750			
0.1038	6644.35	3.7810	3.7810	-0.8248	6.40	0.41	-0.750			
0.1063	6802.33	3.7780	3.7781	-0.8265	6.41	0.42	-0.750			
0.1088	6961.21	3.7750	3.7750	-0.8267	6.42	0.43	-0.750			
0.1112	7119.86	3.7720	3.7719	-0.8245	6.43	0.44	-0.750			
0.1137	7277.59	3.7690	3.7690	-0.8249	6.43	0.44	-0.750			
0.1162	7436.62	3.7660	3.7661	-0.8291	6.44	0.45	-0.750			
0.1187	7595.60	3.7630	3.7630	-0.8290	6.45	0.46	-0.750			
0.1212	7753.71	3.7600	3.7600	-0.8301	6.46	0.47	-0.750			
0.1236	7913.49	3.7570	3.7570	-0.8333	6.47	0.48	-0.750			
0.1262	8073.84	3.7540	3.7540	-0.8363	6.49	0.50	-0.750			
0.1287	8236.10	3.7510	3.7510	-0.8399	6.50	0.51	-0.750			
0.1312	8396.81	3.7480	3.7480	-0.8381	6.51	0.52	-0.750			
0.1337	8557.95	3.7450	3.7450	-0.8390	6.52	0.53	-0.750			
0.1362	8719.98	3.7420	3.7420	-0.8400	6.53	0.54	-0.750			
0.1387	8879.65	3.7390	3.7390	-0.8409	6.53	0.54	-0.750			
0.1413	9041.79	3.7360	3.7360	-0.8442	6.54	0.55	-0.750			
0.1438	9203.57	3.7330	3.7331	-0.8490	6.55	0.56	-0.750			
0.1464	9367.26	3.7300	3.7300	-0.8529	6.56	0.57	-0.750			
0.1489	9532.49	3.7270	3.7270	-0.8557	6.57	0.58	-0.750			
0.1515	9696.93	3.7240	3.7240	-0.8587	6.58	0.59	-0.750			
0.1541	9863.08	3.7210	3.7210	-0.8636	6.59	0.60	-0.750			
0.1567	10027.68	3.7180	3.7181	-0.8665	6.60	0.61	-0.750			
0.1593	10194.04	3.7150	3.7149	-0.8726	6.61	0.62	-0.750			
0.1619	10361.87	3.7120	3.7120	-0.8747	6.62	0.63	-0.750			
0.1645	10529.72	3.7090	3.7090	-0.8802	6.63	0.64	-0.750			
0.1672	10700.50	3.7060	3.7060	-0.8927	6.64	0.65	-0.750			
0.1699	10873.27	3.7030	3.7030	-0.8976	6.64	0.65	-0.750			
0.1726	11044.85	3.7000	3.7000	-0.9083	6.65	0.66	-0.750			
0.1753	11220.88	3.6970	3.6970	-0.9132	6.66	0.67	-0.750			
0.1781	11397.42	3.6940	3.6940	-0.9212	6.66	0.67	-0.750			
0.1809	11575.45	3.6910	3.6912	-0.9302	6.67	0.68	-0.750			
0.1837	11753.71	3.6880	3.6880	-0.9369	6.68	0.69	-0.750			
0.1865	11933.42	3.6850	3.6849	-0.9461	6.69	0.70	-0.750			
0.1893	12115.22	3.6820	3.6820	-0.9578	6.70	0.71	-0.750			
0.1922	12300.79	3.6790	3.6790	-0.9690	6.71	0.72	-0.750			
0.1951	12488.20	3.6760	3.6759	-0.9811	6.71	0.72	-0.750			
0.1981	12679.14	3.6730	3.6730	-0.9902	6.72	0.73	-0.750			
0.2011	12869.80	3.6700	3.6700	-0.9989	6.73	0.74	-0.750			
0.2041	13061.63	3.6670	3.6670	-1.0083	6.74	0.75	-0.750			
0.2071	13255.73	3.6640	3.6640	-1.0224	6.74	0.75	-0.750			
0.2102	13451.97	3.6610	3.6609	-1.0339	6.75	0.76	-0.750			
0.2133	13652.38	3.6580	3.6580	-1.0477	6.76	0.77	-0.750			
0.2165	13854.16	3.6550	3.6550	-1.0590	6.77	0.78	-0.750			
0.2197	14060.29	3.6520	3.6521	-1.0794	6.78	0.79	-0.750			
0.2229	14268.45	3.6490	3.6490	-1.0883	6.79	0.80	-0.750			
0.2262	14478.72	3.6460	3.6459	-1.1005	6.80	0.81	-0.750			
0.2295	14689.46	3.6430	3.6430	-1.1135	6.81	0.82	-0.750			
0.2329	14905.84	3.6400	3.6399	-1.1305	6.81	0.82	-0.750			
0.2363	15125.10	3.6370	3.6370	-1.1464	6.82	0.83	-0.750			
0.2398	15346.73	3.6340	3.6340	-1.1567	6.82	0.83	-0.750			
0.2433	15569.09	3.6310	3.6311	-1.1695	6.83	0.84	-0.750			
0.2468	15796.47	3.6280	3.6280	-1.1874	6.84	0.85	-0.750			
0.2504	16024.81	3.6250	3.6249	-1.1996	6.84	0.85	-0.750			
0.2540	16255.04	3.6220	3.6220	-1.2179	6.85	0.86	-0.750			
0.2577	16490.76	3.6190	3.6190	-1.2327	6.85	0.86	-0.750			
0.2614	16729.88	3.6160	3.6160	-1.2492	6.86	0.87	-0.750			
0.2652	16971.96	3.6130	3.6130	-1.2646	6.86	0.87	-0.750			
0.2690	17214.45	3.6100	3.6102	-1.2837	6.87	0.88	-0.750			
0.2729	17464.21	3.6070	3.6070	-1.3033	6.87	0.88	-0.750			
0.2768	17715.80	3.6040	3.6040	-1.3198	6.87	0.88	-0.750			
0.2808	17971.29	3.6010	3.6012	-1.3365	6.87	0.88	-0.750	0.466	1.108	
0.2849	18231.48	3.5980	3.5980	-1.3545	6.88	0.89	-0.750			
0.2889	18491.81	3.5950	3.5950	-1.3698	6.88	0.89	-0.750			
0.2931	18755.71	3.5920	3.5921	-1.3868	6.89	0.90	-0.750			
0.2972	19023.60	3.5890	3.5889	-1.4042	6.89	0.90	-0.750			
0.3015	19296.71	3.5860	3.5859	-1.4077	6.90	0.91	-0.750			
0.3058	19568.03	3.5830	3.5831	-1.4173	6.90	0.91	-0.750			
0.3100	19839.07	3.5800	3.5801	-1.4369	6.90	0.91	-0.750			
0.3143	20116.30	3.5770	3.5769	-1.4525	6.90	0.91	-0.750			
0.3187	20395.19	3.5740	3.5740	-1.4726	6.90	0.91	-0.750			
0.3231	20678.15	3.5710	3.5711	-1.5012	6.90	0.91	-0.750			
0.3277	20971.84	3.5680	3.5679	-1.5272	6.91	0.92	-0.750			
0.3323	21270.21	3.5650	3.5650	-1.5479	6.91	0.92	-0.750			
0.3370	21568.24	3.5620	3.5622	-1.5684	6.91	0.92	-0.750			
0.3417	21868.32	3.5590	3.5590	-1.5854	6.91	0.92	-0.750			
0.3465	22178.46	3.5560	3.5560	-1.6057	6.91	0.92	-0.750			
0.3513	22486.34	3.5530	3.5529	-1.6262	6.91	0.92	-0.750			
0.3563	22801.51	3.5500	3.5499	-1.6430	6.91	0.92	-0.750			
0.3612	23119.54	3.5470	3.5470	-1.6627	6.91	0.92	-0.750			
0.3663	23443.72	3.5440	3.5439	-1.6746	6.92	0.93	-0.750			
0.3713	23765.32	3.5410	3.5409	-1.6819	6.92	0.93	-0.750			
0.3764	24087.20	3.5380	3.5381	-1.6961	6.92	0.93	-0.750			
0.3815	24415.92	3.5350	3.5350	-1.7035	6.92	0.93	-0.750			
0.3866	24740.85	3.5320	3.5321	-1.7203	6.92	0.93	-0.750			
0.3918	25076.49	3.5290	3.5290	-1.7185	6.93	0.94	-0.750			
0.3970	25406.06	3.5260	3.5261	-1.7274	6.94	0.95	-0.750			
0.4022	25742.08	3.5230	3.5230	-1.7391	6.94	0.95	-0.750			
0.4074	26076.56	3.5200	3.5200	-1.7442	6.95	0.96	-0.750			
0.4127	26410.06	3.5170	3.5169	-1.7390	6.96	0.97	-0.750			
0.4179	26745.49	3.5140	3.5140	-1.7467	6.97	0.98	-0.750			
0.4231	27077.99	3.5110	3.5111	-1.7490	6.97	0.98	-0.750			
0.4284	27418.42	3.5080	3.5079	-1.7608	6.97	0.98	-0.750			
0.4337	27753.87	3.5050	3.5051	-1.7512	6.97	0.98	-0.750			
0.4390	28092.95	3.5020	3.5019	-1.7463	6.98	0.99	-0.750			
0.4442	28426.49	3.4990	3.4991	-1.7450	6.99	1.00	-0.750			
0.4494	28764.04	3.4960	3.4959	-1.7347	7.00	1.01	-0.750			
0.4546	29097.12	3.4930	3.4929	-1.7223	7.01	1.02	-0.750			
0.4598	29424.69	3.4900	3.4900	-1.7061	7.01	1.02	-0.750			
0.4649	29751.28	3.4870	3.4869	-1.6948	7.01	1.02	-0.750			
0.4699	30075.73	3.4840	3.4841	-1.6778	7.01	1.02	-0.750			
0.4750	30397.45	3.4810	3.4809	-1.6665	7.03	1.04	-0.750			
0.4799	30714.33	3.4780	3.4781	-1.6444	7.04	1.05	-0.750			
0.4848	31029.37	3.4750	3.4750	-1.6256	7.04	1.05	-0.750			
0.4897	31341.29	3.4720	3.4720	-1.6055	7.05	1.06	-0.750			
0.4945	31646.00	3.4690	3.4691	-1.5874	7.05	1.06	-0.750			
0.4992	31950.19	3.4660	3.4659	-1.5662	7.07	1.08	-0.750			
0.5039	32249.81	3.4630	3.4630	-1.5467	7.08	1.09	-0.750			
0.5085	32545.12	3.4600	3.4599	-1.5203	7.09	1.10	-0.750			
0.5131	32837.37	3.4570	3.4570	-1.4934	7.10	1.11	-0.750			
0.5175	33120.47	3.4540	3.4540	-1.4697	7.11	1.12	-0.750			
0.5219	33398.78	3.4510	3.4510	-1.4414	7.12	1.13	-0.750			
0.5261	33673.27	3.4480	3.4479	-1.4141	7.12	1.13	-0.750			
0.5303	33942.24	3.4450	3.4450	-1.3871	7.13	1.14	-0.750			
0.5345	34204.97	3.4420	3.4420	-1.3578	7.14	1.15	-0.750			
0.5385	34466.52	3.4390	3.4390	-1.3339	7.15	1.16	-0.750			
0.5425	34719.14	3.4360	3.4360	-1.3021	7.17	1.18	-0.750			
0.5463	34964.14	3.4330	3.4330	-1.2654	7.18	1.19	-0.750			
0.5501	35205.00	3.4300	3.4300	-1.2395	7.19	1.20	-0.750			
0.5538	35440.24	3.4270	3.4270	-1.2117	7.20	1.21	-0.750			
0.5573	35669.82	3.4240	3.4241	-1.1864	7.22	1.23	-0.750			
0.5609	35894.66	3.4210	3.4209	-1.1577	7.23	1.24	-0.750			
0.5643	36115.56	3.4180	3.4179	-1.1266	7.25	1.26	-0.750			
0.5676	36329.49	3.4150	3.4151	-1.0979	7.27	1.28	-0.750			
0.5709	36537.46	3.4120	3.4120	-1.0705	7.28	1.29	-0.750			
0.5741	36739.93	3.4090	3.4090	-1.0375	7.29	1.30	-0.750			
0.5771	36935.81	3.4060	3.4059	-1.0096	7.30	1.31	-0.750			
0.5801	37125.42	3.4030	3.4031	-0.9782	7.31	1.32	-0.750			
0.5830	37311.16	3.4000	3.4000	-0.9565	7.32	1.33	-0.750			
0.5858	37492.93	3.3970	3.3970	-0.9297	7.33	1.34	-0.750			
0.5886	37668.57	3.3940	3.3940	-0.8996	7.34	1.35	-0.750			
0.5912	37838.48	3.3910	3.3910	-0.8738	7.35	1.36	-0.750			
0.5938	38004.73	3.3880	3.3881	-0.8478	7.36	1.37	-0.750			
0.5963	38164.28	3.3850	3.3850	-0.8191	7.37	1.38	-0.750			
0.5987	38319.55	3.3820	3.3820	-0.7870	7.38	1.39	-0.750			
0.6011	38468.16	3.3790	3.3790	-0.7665	7.39	1.40	-0.750			
