Ah_balance (normalized)	Ah_balance (mAh)	Voltage - fit (V)	Voltage -  interpolate (V)	dQ/dV (1/V)	Temperature (°C)	Temperature - diff (°C)	Current (C)	R_DC 0ms (mOhm)	R_DC 50ms (mOhm)	R_DC 50 ms PEC (mOhm)
0.1783	11408.63	4.0830	4.0830	0.7480	7.64	1.67	0.750			
0.1805	11553.20	4.0800	4.0800	0.7593	7.64	1.67	0.750			
0.1829	11702.69	4.0770	4.0770	0.7705	7.63	1.66	0.750			
0.1852	11850.68	4.0740	4.0739	0.7719	7.62	1.65	0.750			
0.1875	11998.94	4.0710	4.0711	0.7760	7.61	1.64	0.750			
0.1898	12147.83	4.0680	4.0680	0.7801	7.61	1.64	0.750			
0.1922	12298.93	4.0650	4.0649	0.7825	7.60	1.63	0.750			
0.1945	12448.20	4.0620	4.0620	0.7832	7.59	1.62	0.750			
0.1968	12597.95	4.0590	4.0591	0.7882	7.58	1.61	0.750			
0.1992	12750.76	4.0560	4.0560	0.7952	7.58	1.61	0.750			
0.2016	12903.36	4.0530	4.0529	0.7987	7.57	1.60	0.750			
0.2040	13056.94	4.0500	4.0500	0.8035	7.56	1.59	0.750			
0.2064	13211.72	4.0470	4.0470	0.8053	7.54	1.57	0.750			
0.2089	13368.31	4.0440	4.0440	0.8073	7.53	1.56	0.750			
0.2113	13523.90	4.0410	4.0410	0.8050	7.52	1.55	0.750			
0.2137	13677.74	4.0380	4.0379	0.8068	7.51	1.54	0.750			
0.2161	13831.78	4.0350	4.0351	0.8089	7.50	1.53	0.750			
0.2186	13987.46	4.0320	4.0319	0.8069	7.49	1.52	0.750			
0.2210	14141.10	4.0290	4.0290	0.8134	7.49	1.52	0.750			
0.2234	14296.68	4.0260	4.0260	0.8184	7.48	1.51	0.750			
0.2259	14455.89	4.0230	4.0228	0.8249	7.47	1.50	0.750			
0.2284	14615.47	4.0200	4.0201	0.8312	7.46	1.49	0.750			
0.2309	14775.21	4.0170	4.0171	0.8328	7.45	1.48	0.750			
0.2334	14936.62	4.0140	4.0140	0.8384	7.44	1.47	0.750			
0.2359	15097.69	4.0110	4.0110	0.8384	7.42	1.45	0.750			
0.2384	15258.95	4.0080	4.0079	0.8384	7.41	1.44	0.750			
0.2409	15420.10	4.0050	4.0050	0.8418	7.40	1.43	0.750			
0.2435	15581.60	4.0020	4.0020	0.8461	7.39	1.42	0.750			
0.2460	15743.57	3.9990	3.9990	0.8516	7.38	1.41	0.750			
0.2485	15906.35	3.9960	3.9960	0.8579	7.37	1.40	0.750			
0.2511	16072.50	3.9930	3.9926	0.8643	7.36	1.39	0.750			
0.2538	16240.42	3.9900	3.9901	0.8727	7.35	1.38	0.750			
0.2564	16410.08	3.9870	3.9869	0.8760	7.34	1.37	0.750			
0.2591	16580.15	3.9840	3.9841	0.8781	7.33	1.36	0.750			
0.2617	16749.13	3.9810	3.9811	0.8766	7.32	1.35	0.750			
0.2643	16916.13	3.9780	3.9779	0.8739	7.31	1.34	0.750			
0.2669	17084.27	3.9750	3.9750	0.8700	7.30	1.33	0.750			
0.2695	17248.63	3.9720	3.9720	0.8732	7.29	1.32	0.750			
0.2721	17414.45	3.9690	3.9690	0.8768	7.28	1.31	0.750			
0.2748	17584.08	3.9660	3.9660	0.8855	7.27	1.30	0.750			
0.2774	17754.23	3.9630	3.9630	0.8936	7.26	1.29	0.750			
0.2801	17926.89	3.9600	3.9601	0.9049	7.25	1.28	0.750			
0.2829	18103.05	3.9570	3.9570	0.9121	7.24	1.27	0.750			
0.2856	18280.15	3.9540	3.9540	0.9201	7.22	1.25	0.750			
0.2884	18456.82	3.9510	3.9509	0.9184	7.21	1.24	0.750			
0.2912	18634.49	3.9480	3.9480	0.9180	7.20	1.23	0.750			
0.2939	18809.96	3.9450	3.9450	0.9207	7.18	1.21	0.750			
0.2966	18985.31	3.9420	3.9420	0.9263	7.17	1.20	0.750			
0.2994	19161.44	3.9390	3.9391	0.9313	7.16	1.19	0.750			
0.3022	19342.58	3.9360	3.9359	0.9463	7.15	1.18	0.750			
0.3051	19524.74	3.9330	3.9330	0.9477	7.14	1.17	0.750			
0.3079	19708.24	3.9300	3.9301	0.9606	7.13	1.16	0.750			
0.3108	19893.63	3.9270	3.9271	0.9681	7.12	1.15	0.750			
0.3137	20079.72	3.9240	3.9237	0.9763	7.11	1.14	0.750			
0.3167	20266.88	3.9210	3.9211	0.9794	7.10	1.13	0.750			
0.3196	20456.70	3.9180	3.9181	0.9881	7.09	1.12	0.750			
0.3226	20647.94	3.9150	3.9150	0.9991	7.07	1.10	0.750			
0.3256	20839.83	3.9120	3.9119	1.0024	7.06	1.09	0.750			
0.3286	21032.37	3.9090	3.9091	1.0083	7.05	1.08	0.750			
0.3317	21227.16	3.9060	3.9059	1.0190	7.04	1.07	0.750			
0.3347	21423.30	3.9030	3.9031	1.0297	7.03	1.06	0.750			
0.3379	21623.37	3.9000	3.8999	1.0425	7.01	1.04	0.750			
0.3410	21825.10	3.8970	3.8970	1.0459	7.00	1.03	0.750			
0.3441	22024.33	3.8940	3.8941	1.0568	6.98	1.01	0.750			
0.3473	22226.20	3.8910	3.8911	1.0718	6.97	1.00	0.750			
0.3505	22434.34	3.8880	3.8878	1.0844	6.95	0.98	0.750			
0.3538	22642.23	3.8850	3.8851	1.0981	6.94	0.97	0.750			
0.3571	22854.38	3.8820	3.8820	1.1166	6.93	0.96	0.750			
0.3605	23073.61	3.8790	3.8790	1.1348	6.92	0.95	0.750			
0.3640	23292.94	3.8760	3.8759	1.1395	6.91	0.94	0.750			
0.3674	23512.00	3.8730	3.8731	1.1544	6.89	0.92	0.750			
0.3708	23734.35	3.8700	3.8701	1.1684	6.88	0.91	0.750			
0.3744	23961.37	3.8670	3.8669	1.1851	6.86	0.89	0.750			
0.3779	24188.48	3.8640	3.8640	1.1993	6.84	0.87	0.750			
0.3816	24420.55	3.8610	3.8610	1.2144	6.83	0.86	0.750			
0.3853	24656.45	3.8580	3.8580	1.2322	6.82	0.85	0.750			
0.3890	24896.45	3.8550	3.8551	1.2424	6.81	0.84	0.750			
0.3927	25133.95	3.8520	3.8521	1.2532	6.80	0.83	0.750			
0.3965	25373.41	3.8490	3.8490	1.2855	6.79	0.82	0.750			
0.4003	25620.56	3.8460	3.8458	1.3214	6.77	0.80	0.750			
0.4043	25876.60	3.8430	3.8430	1.3528	6.76	0.79	0.750			
0.4085	26141.55	3.8400	3.8403	1.3937	6.75	0.78	0.750	0.390	0.913	
0.4128	26417.44	3.8370	3.8370	1.4237	6.73	0.76	0.750			
0.4171	26695.42	3.8340	3.8341	1.4366	6.71	0.74	0.750			
0.4214	26969.96	3.8310	3.8310	1.4524	6.69	0.72	0.750			
0.4258	27250.29	3.8280	3.8279	1.4775	6.67	0.70	0.750			
0.4303	27536.73	3.8250	3.8250	1.4982	6.66	0.69	0.750			
0.4348	27829.36	3.8220	3.8220	1.5305	6.64	0.67	0.750			
0.4394	28124.56	3.8190	3.8192	1.5612	6.63	0.66	0.750			
0.4442	28426.73	3.8160	3.8160	1.5913	6.61	0.64	0.750			
0.4490	28737.22	3.8130	3.8130	1.6136	6.59	0.62	0.750			
0.4539	29047.30	3.8100	3.8101	1.6208	6.57	0.60	0.750			
0.4588	29360.10	3.8070	3.8070	1.6624	6.55	0.58	0.750			
0.4638	29683.28	3.8040	3.8039	1.6868	6.53	0.56	0.750			
0.4689	30009.74	3.8010	3.8009	1.7254	6.51	0.54	0.750			
0.4742	30346.62	3.7980	3.7981	1.7591	6.49	0.52	0.750			
0.4796	30692.44	3.7950	3.7948	1.7898	6.47	0.50	0.750			
0.4849	31034.16	3.7920	3.7922	1.8262	6.44	0.47	0.750			
0.4905	31390.45	3.7890	3.7889	1.8701	6.42	0.45	0.750			
0.4960	31746.05	3.7860	3.7858	1.8733	6.40	0.43	0.750			
0.5016	32103.10	3.7830	3.7834	1.8809	6.38	0.41	0.750			
0.5073	32466.91	3.7800	3.7799	1.8914	6.36	0.39	0.750			
0.5130	32834.04	3.7770	3.7768	1.9016	6.33	0.36	0.750			
0.5189	33206.52	3.7740	3.7742	1.9482	6.31	0.34	0.750			
0.5247	33582.16	3.7710	3.7710	1.9336	6.28	0.31	0.750			
0.5305	33953.23	3.7680	3.7680	1.9599	6.26	0.29	0.750			
0.5365	34333.80	3.7650	3.7652	1.8732	6.24	0.27	0.750			
0.5421	34694.38	3.7620	3.7621	1.8598	6.22	0.25	0.750			
0.5473	35029.98	3.7590	3.7592	1.8644	6.20	0.23	0.750			
0.5529	35384.02	3.7560	3.7557	1.9047	6.18	0.21	0.750			
0.5585	35745.55	3.7530	3.7531	1.9928	6.17	0.20	0.750			
0.5649	36150.90	3.7500	3.7502	2.1202	6.14	0.17	0.750			
0.5713	36566.25	3.7470	3.7470	2.1807	6.11	0.14	0.750			
0.5781	36995.95	3.7440	3.7440	2.2473	6.09	0.12	0.750			
0.5850	37439.68	3.7410	3.7410	2.3419	6.08	0.11	0.750			
0.5921	37895.80	3.7380	3.7380	2.3440	6.06	0.09	0.750			
0.5992	38349.41	3.7350	3.7351	2.3957	6.04	0.07	0.750			
0.6064	38808.22	3.7320	3.7319	2.4626	6.01	0.04	0.750			
0.6139	39288.98	3.7290	3.7289	2.4429	5.99	0.02	0.750			
0.6214	39772.56	3.7260	3.7261	2.4224	5.98	0.01	0.750			
0.6287	40239.78	3.7230	3.7229	2.3993	5.97	-0.00	0.750			
0.6359	40695.99	3.7200	3.7204	2.2901	5.95	-0.02	0.750			
0.6427	41132.07	3.7170	3.7173	2.1554	5.94	-0.03	0.750			
0.6489	41528.42	3.7140	3.7145	1.9649	5.93	-0.04	0.750			
0.6545	41886.92	3.7110	3.7111	1.7787	5.92	-0.05	0.750			
0.6595	42208.53	3.7080	3.7079	1.6006	5.92	-0.05	0.750			
0.6642	42506.19	3.7050	3.7050	1.4557	5.91	-0.06	0.750			
0.6683	42771.05	3.7020	3.7019	1.3267	5.92	-0.05	0.750			
0.6718	42998.00	3.6990	3.6990	1.1832	5.92	-0.05	0.750			
0.6751	43208.11	3.6960	3.6959	1.0883	5.93	-0.04	0.750			
0.6782	43404.88	3.6930	3.6931	1.0086	5.93	-0.04	0.750			
0.6811	43589.87	3.6900	3.6899	0.9504	5.93	-0.04	0.750			
0.6838	43763.16	3.6870	3.6871	0.9141	5.93	-0.04	0.750			
0.6864	43932.30	3.6840	3.6840	0.8847	5.93	-0.04	0.750			
0.6890	44097.68	3.6810	3.6806	0.8542	5.93	-0.04	0.750			
0.6916	44259.81	3.6780	3.6782	0.8322	5.93	-0.04	0.750			
0.6941	44419.21	3.6750	3.6750	0.8016	5.93	-0.04	0.750			
0.6965	44573.83	3.6720	3.6719	0.7765	5.94	-0.03	0.750			
0.6987	44718.37	3.6690	3.6691	0.7334	5.94	-0.03	0.750			
0.7009	44856.03	3.6660	3.6659	0.7020	5.94	-0.03	0.750			
0.7029	44987.44	3.6630	3.6631	0.6709	5.94	-0.03	0.750			
0.7049	45113.98	3.6600	3.6599	0.6421	5.95	-0.02	0.750			
0.7068	45233.76	3.6570	3.6569	0.6067	5.95	-0.02	0.750			
0.7086	45349.00	3.6540	3.6540	0.5712	5.96	-0.01	0.750			
0.7102	45454.56	3.6510	3.6511	0.5348	5.96	-0.01	0.750			
0.7118	45554.67	3.6480	3.6479	0.5004	5.97	-0.00	0.750			
0.7132	45646.05	3.6450	3.6449	0.4632	5.97	-0.00	0.750			
0.7145	45731.15	3.6420	3.6421	0.4277	5.97	0.00	0.750			
0.7158	45809.80	3.6390	3.6390	0.3925	5.98	0.01	0.750			
0.7169	45882.51	3.6360	3.6359	0.3594	5.98	0.01	0.750			
0.7179	45948.49	3.6330	3.6330	0.3261	5.98	0.01	0.750			
0.7189	46006.79	3.6300	3.6299	0.2909	5.98	0.01	0.750			
0.7197	46060.71	3.6270	3.6269	0.2541	5.98	0.01	0.750			
0.7204	46106.38	3.6240	3.6240	0.2180	5.99	0.02	0.750			
0.7210	46145.68	3.6210	3.6210	0.1819	5.99	0.02	0.750			
0.7215	46177.73	3.6180	3.6182	0.1425	5.99	0.02	0.750			
0.7219	46202.23	3.6150	3.6153	0.1003	5.99	0.02	0.750			
0.7222	46217.94	3.6120	3.6125	0.0542	5.99	0.02	0.750			
0.7222	46223.91	3.6090	3.6107	0.0079	5.99	0.02	0.750			
