Ah_balance (normalized)	Ah_balance (mAh)	Voltage - fit (V)	Voltage -  interpolate (V)	dQ/dV (1/V)	Temperature (°C)	Temperature - diff (°C)	Current (C)	R_DC 0ms (mOhm)	R_DC 50ms (mOhm)	R_DC 50 ms PEC (mOhm)
0.0924	5914.12	4.0020	4.0021	-0.0803	5.99	0.00	-0.750			
0.0927	5932.23	3.9990	3.9992	-0.1084	5.99	-0.00	-0.750			
0.0931	5956.13	3.9960	3.9959	-0.1360	5.99	-0.00	-0.750			
0.0935	5985.29	3.9930	3.9929	-0.1614	5.99	-0.00	-0.750			
0.0940	6018.79	3.9900	3.9901	-0.1861	5.99	-0.00	-0.750			
0.0946	6057.28	3.9870	3.9870	-0.2088	5.99	-0.00	-0.750			
0.0953	6100.25	3.9840	3.9841	-0.2334	5.99	-0.00	-0.750			
0.0961	6147.26	3.9810	3.9810	-0.2561	5.98	-0.01	-0.750			
0.0968	6198.22	3.9780	3.9781	-0.2786	5.98	-0.01	-0.750			
0.0977	6253.81	3.9750	3.9749	-0.3040	5.98	-0.01	-0.750			
0.0987	6314.43	3.9720	3.9720	-0.3274	5.98	-0.01	-0.750			
0.0997	6380.11	3.9690	3.9690	-0.3500	5.98	-0.01	-0.750			
0.1008	6449.67	3.9660	3.9661	-0.3766	5.98	-0.01	-0.750			
0.1019	6524.40	3.9630	3.9630	-0.4008	5.97	-0.02	-0.750			
0.1032	6603.71	3.9600	3.9599	-0.4267	5.97	-0.02	-0.750			
0.1045	6688.10	3.9570	3.9570	-0.4489	5.97	-0.02	-0.750			
0.1059	6776.54	3.9540	3.9539	-0.4723	5.97	-0.02	-0.750			
0.1074	6871.24	3.9510	3.9510	-0.4944	5.97	-0.02	-0.750			
0.1089	6968.11	3.9480	3.9480	-0.5129	5.97	-0.02	-0.750			
0.1104	7067.43	3.9450	3.9450	-0.5294	5.97	-0.02	-0.750			
0.1121	7171.50	3.9420	3.9421	-0.5540	5.97	-0.02	-0.750			
0.1138	7280.48	3.9390	3.9389	-0.5695	5.97	-0.02	-0.750			
0.1155	7392.41	3.9360	3.9359	-0.5876	5.97	-0.02	-0.750			
0.1173	7506.90	3.9330	3.9333	-0.6003	5.97	-0.02	-0.750			
0.1191	7624.94	3.9300	3.9299	-0.6165	5.97	-0.02	-0.750			
0.1210	7743.91	3.9270	3.9270	-0.6257	5.97	-0.02	-0.750			
0.1229	7864.17	3.9240	3.9240	-0.6322	5.97	-0.02	-0.750			
0.1248	7986.70	3.9210	3.9210	-0.6470	5.97	-0.02	-0.750			
0.1268	8112.25	3.9180	3.9180	-0.6581	5.97	-0.02	-0.750			
0.1287	8239.24	3.9150	3.9148	-0.6664	5.97	-0.02	-0.750			
0.1308	8368.70	3.9120	3.9120	-0.6754	5.97	-0.02	-0.750			
0.1328	8499.77	3.9090	3.9090	-0.6801	5.97	-0.02	-0.750			
0.1349	8631.05	3.9060	3.9061	-0.6916	5.97	-0.02	-0.750			
0.1370	8764.90	3.9030	3.9030	-0.6926	5.97	-0.02	-0.750			
0.1390	8898.30	3.9000	3.8999	-0.6971	5.97	-0.02	-0.750			
0.1411	9032.82	3.8970	3.8969	-0.7006	5.97	-0.02	-0.750			
0.1432	9167.90	3.8940	3.8941	-0.7034	5.97	-0.02	-0.750			
0.1454	9302.79	3.8910	3.8910	-0.7116	5.97	-0.02	-0.750			
0.1475	9439.18	3.8880	3.8880	-0.7203	5.98	-0.01	-0.750			
0.1497	9578.09	3.8850	3.8849	-0.7147	5.98	-0.01	-0.750			
0.1518	9718.07	3.8820	3.8820	-0.7187	5.99	-0.00	-0.750			
0.1540	9856.01	3.8790	3.8791	-0.7220	5.99	-0.00	-0.750			
0.1562	9994.85	3.8760	3.8758	-0.7227	5.99	0.00	-0.750			
0.1583	10132.28	3.8730	3.8729	-0.7250	6.00	0.01	-0.750			
0.1605	10271.23	3.8700	3.8701	-0.7289	6.01	0.02	-0.750			
0.1627	10412.73	3.8670	3.8670	-0.7333	6.01	0.02	-0.750			
0.1649	10556.60	3.8640	3.8640	-0.7376	6.02	0.03	-0.750			
0.1672	10698.15	3.8610	3.8612	-0.7355	6.03	0.04	-0.750			
0.1694	10838.47	3.8580	3.8579	-0.7355	6.03	0.04	-0.750			
0.1716	10979.94	3.8550	3.8550	-0.7334	6.04	0.05	-0.750			
0.1737	11119.92	3.8520	3.8520	-0.7383	6.04	0.05	-0.750			
0.1760	11261.73	3.8490	3.8491	-0.7408	6.04	0.05	-0.750			
0.1782	11406.66	3.8460	3.8459	-0.7456	6.05	0.06	-0.750			
0.1805	11549.61	3.8430	3.8431	-0.7461	6.05	0.06	-0.750			
0.1827	11693.20	3.8400	3.8401	-0.7470	6.06	0.07	-0.750			
0.1849	11836.01	3.8370	3.8370	-0.7497	6.07	0.08	-0.750			
0.1872	11979.58	3.8340	3.8339	-0.7464	6.07	0.08	-0.750			
0.1895	12125.91	3.8310	3.8310	-0.7505	6.08	0.09	-0.750			
0.1917	12269.12	3.8280	3.8279	-0.7476	6.09	0.10	-0.750			
0.1940	12413.29	3.8250	3.8250	-0.7477	6.09	0.10	-0.750			
0.1962	12556.04	3.8220	3.8219	-0.7488	6.10	0.11	-0.750			
0.1984	12698.76	3.8190	3.8190	-0.7468	6.10	0.11	-0.750			
0.2006	12841.29	3.8160	3.8160	-0.7411	6.10	0.11	-0.750			
0.2029	12985.53	3.8130	3.8130	-0.7478	6.11	0.12	-0.750			
0.2051	13129.04	3.8100	3.8101	-0.7496	6.11	0.12	-0.750			
0.2074	13272.29	3.8070	3.8069	-0.7501	6.12	0.13	-0.750			
0.2096	13416.61	3.8040	3.8040	-0.7544	6.13	0.14	-0.750			
0.2119	13561.72	3.8010	3.8010	-0.7539	6.13	0.14	-0.750			
0.2142	13708.20	3.7980	3.7980	-0.7594	6.14	0.15	-0.750			
0.2165	13854.08	3.7950	3.7949	-0.7616	6.15	0.16	-0.750			
0.2187	13999.87	3.7920	3.7919	-0.7563	6.15	0.16	-0.750			
0.2210	14144.66	3.7890	3.7890	-0.7575	6.16	0.17	-0.750			
0.2233	14289.07	3.7860	3.7860	-0.7589	6.17	0.18	-0.750			
0.2256	14435.77	3.7830	3.7830	-0.7569	6.18	0.19	-0.750			
0.2279	14582.41	3.7800	3.7799	-0.7611	6.18	0.19	-0.750			
0.2301	14727.75	3.7770	3.7771	-0.7598	6.19	0.20	-0.750			
0.2324	14873.49	3.7740	3.7740	-0.7614	6.20	0.21	-0.750			
0.2347	15020.58	3.7710	3.7709	-0.7672	6.21	0.22	-0.750			
0.2370	15166.51	3.7680	3.7680	-0.7659	6.21	0.22	-0.750			
0.2393	15314.80	3.7650	3.7650	-0.7691	6.22	0.23	-0.750			
0.2416	15462.96	3.7620	3.7620	-0.7739	6.23	0.24	-0.750			
0.2439	15611.43	3.7590	3.7590	-0.7740	6.23	0.24	-0.750			
0.2462	15759.52	3.7560	3.7559	-0.7810	6.24	0.25	-0.750			
0.2486	15910.01	3.7530	3.7530	-0.7821	6.24	0.25	-0.750			
0.2510	16061.06	3.7500	3.7500	-0.7843	6.24	0.25	-0.750			
0.2533	16213.24	3.7470	3.7469	-0.7921	6.25	0.26	-0.750			
0.2557	16365.63	3.7440	3.7441	-0.7951	6.25	0.26	-0.750			
0.2580	16515.08	3.7410	3.7410	-0.8025	6.26	0.27	-0.750			
0.2605	16671.04	3.7380	3.7380	-0.8098	6.27	0.28	-0.750			
0.2629	16827.79	3.7350	3.7349	-0.8066	6.28	0.29	-0.750			
0.2654	16984.31	3.7320	3.7319	-0.8136	6.28	0.29	-0.750			
0.2678	17141.33	3.7290	3.7293	-0.8186	6.29	0.30	-0.750			
0.2703	17297.32	3.7260	3.7259	-0.8195	6.30	0.31	-0.750			
0.2727	17454.86	3.7230	3.7229	-0.8233	6.30	0.31	-0.750			
0.2752	17611.41	3.7200	3.7200	-0.8201	6.31	0.32	-0.750			
0.2777	17773.28	3.7170	3.7170	-0.8357	6.31	0.32	-0.750			
0.2802	17933.41	3.7140	3.7141	-0.8479	6.32	0.33	-0.750			
0.2827	18095.13	3.7110	3.7109	-0.8553	6.33	0.34	-0.750			
0.2853	18261.35	3.7080	3.7079	-0.8620	6.33	0.34	-0.750			
0.2879	18427.54	3.7050	3.7050	-0.8703	6.34	0.35	-0.750			
0.2906	18598.07	3.7020	3.7020	-0.8769	6.35	0.36	-0.750			
0.2932	18765.67	3.6990	3.6991	-0.8812	6.35	0.36	-0.750			
0.2959	18934.71	3.6960	3.6960	-0.8872	6.36	0.37	-0.750			
0.2985	19103.85	3.6930	3.6928	-0.8936	6.36	0.37	-0.750			
0.3012	19276.79	3.6900	3.6900	-0.9025	6.36	0.37	-0.750			
0.3039	19452.46	3.6870	3.6872	-0.9122	6.37	0.38	-0.750			
0.3067	19627.60	3.6840	3.6838	-0.9245	6.37	0.38	-0.750			
0.3095	19808.56	3.6810	3.6810	-0.9282	6.38	0.39	-0.750			
0.3122	19983.71	3.6780	3.6780	-0.9280	6.38	0.39	-0.750			
0.3150	20160.29	3.6750	3.6750	-0.9362	6.39	0.40	-0.750			
0.3178	20341.64	3.6720	3.6722	-0.9472	6.39	0.40	-0.750			
0.3207	20525.73	3.6690	3.6688	-0.9656	6.40	0.41	-0.750			
0.3237	20713.72	3.6660	3.6660	-0.9772	6.40	0.41	-0.750			
0.3266	20903.17	3.6630	3.6629	-0.9855	6.41	0.42	-0.750			
0.3296	21096.36	3.6600	3.6603	-0.9979	6.42	0.43	-0.750			
0.3326	21288.25	3.6570	3.6569	-1.0019	6.42	0.43	-0.750			
0.3356	21479.25	3.6540	3.6540	-1.0027	6.42	0.43	-0.750			
0.3386	21670.97	3.6510	3.6509	-1.0102	6.43	0.44	-0.750			
0.3417	21866.12	3.6480	3.6480	-1.0222	6.43	0.44	-0.750			
0.3447	22057.74	3.6450	3.6449	-1.0742	6.43	0.44	-0.750			
0.3479	22267.69	3.6420	3.6419	-1.1052	6.44	0.45	-0.750			
0.3514	22486.41	3.6390	3.6386	-1.1335	6.44	0.45	-0.750			
0.3548	22708.98	3.6360	3.6367	-1.1452	6.45	0.46	-0.750			
0.3585	22942.20	3.6330	3.6330	-1.1518	6.46	0.47	-0.750			
0.3619	23163.71	3.6300	3.6300	-1.1375	6.46	0.47	-0.750			
0.3653	23376.35	3.6270	3.6269	-1.1168	6.47	0.48	-0.750			
0.3685	23583.46	3.6240	3.6241	-1.1095	6.47	0.48	-0.750			
0.3718	23797.35	3.6210	3.6209	-1.1103	6.48	0.49	-0.750			
0.3751	24008.95	3.6180	3.6180	-1.1187	6.48	0.49	-0.750			
0.3785	24222.46	3.6150	3.6150	-1.1277	6.49	0.50	-0.750			
0.3819	24444.06	3.6120	3.6120	-1.1515	6.49	0.50	-0.750			
0.3854	24666.94	3.6090	3.6089	-1.1579	6.50	0.51	-0.750			
0.3889	24892.13	3.6060	3.6060	-1.1627	6.50	0.51	-0.750			
0.3924	25113.13	3.6030	3.6033	-1.1758	6.51	0.52	-0.750			
0.3960	25340.89	3.6000	3.6000	-1.1914	6.52	0.53	-0.750			
0.3995	25568.89	3.5970	3.5969	-1.1968	6.52	0.53	-0.750			
0.4031	25799.24	3.5940	3.5939	-1.2105	6.53	0.54	-0.750			
0.4068	26034.83	3.5910	3.5908	-1.2248	6.53	0.54	-0.750			
0.4105	26271.18	3.5880	3.5882	-1.2353	6.54	0.55	-0.750	0.465	1.061	
0.4142	26511.17	3.5850	3.5849	-1.2453	6.54	0.55	-0.750			
0.4179	26746.27	3.5820	3.5821	-1.2550	6.55	0.56	-0.750			
0.4218	26992.57	3.5790	3.5790	-1.2740	6.55	0.56	-0.750			
0.4256	27237.97	3.5760	3.5759	-1.2837	6.55	0.56	-0.750			
0.4294	27484.68	3.5730	3.5731	-1.2942	6.55	0.56	-0.750			
0.4334	27734.85	3.5700	3.5700	-1.3100	6.56	0.57	-0.750			
0.4373	27986.10	3.5670	3.5670	-1.3183	6.56	0.57	-0.750			
0.4412	28238.90	3.5640	3.5640	-1.3344	6.57	0.58	-0.750			
0.4452	28495.97	3.5610	3.5610	-1.3471	6.57	0.58	-0.750			
0.4494	28760.43	3.5580	3.5579	-1.3605	6.57	0.58	-0.750			
0.4535	29021.62	3.5550	3.5550	-1.3798	6.57	0.58	-0.750			
0.4576	29288.73	3.5520	3.5520	-1.3896	6.58	0.59	-0.750			
0.4618	29555.16	3.5490	3.5489	-1.4042	6.59	0.60	-0.750			
0.4660	29826.26	3.5460	3.5459	-1.4221	6.60	0.61	-0.750			
0.4703	30099.46	3.5430	3.5430	-1.4294	6.60	0.61	-0.750			
0.4747	30378.30	3.5400	3.5400	-1.4558	6.61	0.62	-0.750			
0.4791	30659.83	3.5370	3.5370	-1.4709	6.61	0.62	-0.750			
0.4835	30943.05	3.5340	3.5340	-1.4713	6.62	0.63	-0.750			
0.4880	31230.97	3.5310	3.5311	-1.4883	6.62	0.63	-0.750			
0.4925	31517.07	3.5280	3.5281	-1.4915	6.63	0.64	-0.750			
0.4969	31803.24	3.5250	3.5250	-1.5035	6.64	0.65	-0.750			
0.5014	32090.96	3.5220	3.5219	-1.5241	6.64	0.65	-0.750			
0.5060	32383.45	3.5190	3.5190	-1.5285	6.65	0.66	-0.750			
0.5107	32681.74	3.5160	3.5161	-1.5420	6.65	0.66	-0.750			
0.5153	32980.04	3.5130	3.5131	-1.5497	6.65	0.66	-0.750			
0.5199	33276.72	3.5100	3.5098	-1.5556	6.65	0.66	-0.750			
0.5246	33576.88	3.5070	3.5069	-1.5630	6.66	0.67	-0.750			
0.5293	33876.75	3.5040	3.5041	-1.5581	6.67	0.68	-0.750			
0.5340	34176.27	3.5010	3.5010	-1.5536	6.68	0.69	-0.750			
0.5387	34476.48	3.4980	3.4978	-1.5454	6.69	0.70	-0.750			
0.5433	34773.64	3.4950	3.4950	-1.5425	6.70	0.71	-0.750			
0.5479	35065.95	3.4920	3.4918	-1.5307	6.71	0.72	-0.750			
0.5525	35358.13	3.4890	3.4890	-1.5287	6.72	0.73	-0.750			
0.5570	35649.68	3.4860	3.4860	-1.5228	6.73	0.74	-0.750			
0.5617	35947.41	3.4830	3.4829	-1.5378	6.74	0.75	-0.750			
0.5663	36243.03	3.4800	3.4799	-1.5310	6.75	0.76	-0.750			
0.5709	36536.83	3.4770	3.4769	-1.5213	6.76	0.77	-0.750			
0.5755	36830.93	3.4740	3.4741	-1.5104	6.77	0.78	-0.750			
0.5800	37120.67	3.4710	3.4711	-1.5105	6.78	0.79	-0.750			
0.5845	37409.72	3.4680	3.4679	-1.4960	6.79	0.80	-0.750			
0.5890	37697.00	3.4650	3.4649	-1.4824	6.80	0.81	-0.750			
0.5935	37981.14	3.4620	3.4622	-1.4675	6.81	0.82	-0.750			
0.5979	38265.52	3.4590	3.4589	-1.4609	6.83	0.84	-0.750			
0.6022	38540.04	3.4560	3.4559	-1.4529	6.84	0.85	-0.750			
0.6065	38815.97	3.4530	3.4531	-1.4224	6.86	0.87	-0.750			
0.6108	39092.29	3.4500	3.4498	-1.4205	6.87	0.88	-0.750			
0.6151	39364.27	3.4470	3.4470	-1.4162	6.88	0.89	-0.750			
0.6193	39634.52	3.4440	3.4440	-1.3957	6.90	0.91	-0.750			
0.6235	39906.55	3.4410	3.4408	-1.3785	6.91	0.92	-0.750			
0.6276	40167.55	3.4380	3.4379	-1.3503	6.92	0.93	-0.750			
0.6316	40422.42	3.4350	3.4351	-1.3268	6.94	0.95	-0.750			
0.6356	40677.76	3.4320	3.4320	-1.3119	6.95	0.96	-0.750			
0.6395	40925.52	3.4290	3.4288	-1.2852	6.96	0.97	-0.750			
0.6433	41168.19	3.4260	3.4261	-1.2570	6.97	0.98	-0.750			
0.6470	41410.79	3.4230	3.4231	-1.2437	6.98	0.99	-0.750			
0.6508	41650.81	3.4200	3.4200	-1.2233	7.00	1.01	-0.750			
0.6544	41882.34	3.4170	3.4170	-1.1892	7.01	1.02	-0.750			
0.6579	42106.53	3.4140	3.4140	-1.1624	7.02	1.03	-0.750			
0.6614	42327.26	3.4110	3.4109	-1.1318	7.04	1.05	-0.750			
0.6647	42542.03	3.4080	3.4080	-1.1035	7.05	1.06	-0.750			
0.6680	42750.00	3.4050	3.4051	-1.0797	7.06	1.07	-0.750			
0.6712	42955.00	3.4020	3.4018	-1.0524	7.08	1.09	-0.750			
0.6743	43154.72	3.3990	3.3990	-1.0292	7.09	1.10	-0.750			
0.6773	43348.88	3.3960	3.3960	-1.0041	7.11	1.12	-0.750			
0.6803	43541.57	3.3930	3.3932	-0.9798	7.12	1.13	-0.750			
0.6832	43727.20	3.3900	3.3899	-0.9535	7.13	1.14	-0.750			
0.6860	43906.37	3.3870	3.3870	-0.9229	7.14	1.15	-0.750			
0.6888	44080.30	3.3840	3.3840	-0.8948	7.16	1.17	-0.750			
0.6914	44249.19	3.3810	3.3810	-0.8734	7.17	1.18	-0.750			
0.6940	44413.40	3.3780	3.3779	-0.8507	7.18	1.19	-0.750			
0.6965	44573.86	3.3750	3.3750	-0.8309	7.20	1.21	-0.750			
0.6989	44732.76	3.3720	3.3720	-0.8065	7.21	1.22	-0.750			
0.7013	44885.52	3.3690	3.3690	-0.7832	7.23	1.24	-0.750			
0.7037	45033.96	3.3660	3.3660	-0.7669	7.24	1.25	-0.750			
0.7059	45178.17	3.3630	3.3629	-0.7454	7.26	1.27	-0.750			
0.7081	45318.96	3.3600	3.3599	-0.7245	7.27	1.28	-0.750			
0.7102	45454.79	3.3570	3.3571	-0.7092	7.28	1.29	-0.750			
0.7124	45590.92	3.3540	3.3540	-0.6910	7.30	1.31	-0.750			
0.7144	45723.37	3.3510	3.3510	-0.6736	7.31	1.32	-0.750			
0.7164	45850.44	3.3480	3.3479	-0.6506	7.32	1.33	-0.750			
0.7183	45972.57	3.3450	3.3450	-0.6283	7.34	1.35	-0.750			
0.7202	46091.84	3.3420	3.3420	-0.6026	7.35	1.36	-0.750			
0.7219	46204.75	3.3390	3.3390	-0.5717	7.36	1.37	-0.750			
