Ah_balance (normalized)	Ah_balance (mAh)	Voltage - fit (V)	Voltage -  interpolate (V)	dQ/dV (1/V)	Temperature (°C)	Temperature - diff (°C)	Current (C)	R_DC 0ms (mOhm)	R_DC 50ms (mOhm)	R_DC 50 ms PEC (mOhm)
0.1779	11387.17	4.0810	4.0810	0.8294	7.09	1.12	0.750			
0.1804	11544.80	4.0780	4.0776	0.8124	7.09	1.12	0.750			
0.1828	11696.00	4.0750	4.0751	0.7956	7.09	1.12	0.750			
0.1851	11849.42	4.0720	4.0721	0.7915	7.09	1.12	0.750			
0.1875	11999.95	4.0690	4.0689	0.7909	7.09	1.12	0.750			
0.1899	12151.38	4.0660	4.0659	0.7956	7.09	1.12	0.750			
0.1922	12301.73	4.0630	4.0631	0.7952	7.09	1.12	0.750			
0.1946	12456.62	4.0600	4.0600	0.8033	7.09	1.12	0.750			
0.1971	12613.56	4.0570	4.0570	0.8041	7.08	1.11	0.750			
0.1995	12767.23	4.0540	4.0540	0.8078	7.08	1.11	0.750			
0.2019	12923.51	4.0510	4.0510	0.8109	7.08	1.11	0.750			
0.2043	13076.97	4.0480	4.0480	0.8122	7.07	1.10	0.750			
0.2068	13232.82	4.0450	4.0451	0.8160	7.07	1.10	0.750			
0.2093	13392.20	4.0420	4.0420	0.8158	7.06	1.09	0.750			
0.2117	13549.27	4.0390	4.0389	0.8174	7.06	1.09	0.750			
0.2142	13706.78	4.0360	4.0361	0.8240	7.06	1.09	0.750			
0.2166	13863.31	4.0330	4.0332	0.8248	7.05	1.08	0.750			
0.2191	14022.03	4.0300	4.0301	0.8290	7.05	1.08	0.750			
0.2216	14180.38	4.0270	4.0270	0.8274	7.04	1.07	0.750			
0.2241	14340.85	4.0240	4.0240	0.8348	7.04	1.07	0.750			
0.2266	14501.92	4.0210	4.0210	0.8390	7.04	1.07	0.750			
0.2291	14664.88	4.0180	4.0180	0.8405	7.03	1.06	0.750			
0.2316	14825.58	4.0150	4.0150	0.8381	7.03	1.06	0.750			
0.2342	14987.81	4.0120	4.0120	0.8357	7.02	1.05	0.750			
0.2367	15147.58	4.0090	4.0091	0.8433	7.02	1.05	0.750			
0.2392	15307.21	4.0060	4.0060	0.8541	7.02	1.05	0.750			
0.2418	15472.61	4.0030	4.0029	0.8565	7.01	1.04	0.750			
0.2444	15638.69	4.0000	4.0001	0.8578	7.01	1.04	0.750			
0.2470	15806.63	3.9970	3.9971	0.8588	7.00	1.03	0.750			
0.2495	15971.08	3.9940	3.9941	0.8578	7.00	1.03	0.750			
0.2521	16134.93	3.9910	3.9910	0.8585	7.00	1.03	0.750			
0.2546	16296.23	3.9880	3.9879	0.8582	6.99	1.02	0.750			
0.2572	16460.34	3.9850	3.9850	0.8662	6.99	1.02	0.750			
0.2598	16629.06	3.9820	3.9820	0.8784	6.99	1.02	0.750			
0.2625	16798.57	3.9790	3.9791	0.8845	6.99	1.02	0.750			
0.2651	16969.12	3.9760	3.9760	0.9007	6.99	1.02	0.750			
0.2679	17143.36	3.9730	3.9728	0.9016	6.99	1.02	0.750			
0.2706	17319.17	3.9700	3.9700	0.8974	6.99	1.02	0.750			
0.2733	17492.53	3.9670	3.9670	0.8943	6.98	1.01	0.750			
0.2760	17663.61	3.9640	3.9643	0.8971	6.98	1.01	0.750			
0.2787	17835.94	3.9610	3.9610	0.8920	6.97	1.00	0.750			
0.2813	18003.86	3.9580	3.9581	0.8938	6.97	1.00	0.750			
0.2840	18175.17	3.9550	3.9550	0.8889	6.96	0.99	0.750			
0.2867	18347.33	3.9520	3.9521	0.9049	6.96	0.99	0.750			
0.2894	18520.82	3.9490	3.9491	0.9138	6.96	0.99	0.750			
0.2921	18696.72	3.9460	3.9459	0.9226	6.95	0.98	0.750			
0.2949	18874.51	3.9430	3.9431	0.9303	6.95	0.98	0.750			
0.2976	19049.18	3.9400	3.9401	0.9693	6.94	0.97	0.750			
0.3006	19236.28	3.9370	3.9371	1.0053	6.94	0.97	0.750			
0.3037	19436.13	3.9340	3.9338	1.0360	6.93	0.96	0.750			
0.3070	19645.89	3.9310	3.9310	1.0319	6.93	0.96	0.750			
0.3101	19847.71	3.9280	3.9283	1.0297	6.92	0.95	0.750			
0.3133	20048.81	3.9250	3.9251	1.0265	6.92	0.95	0.750			
0.3163	20242.93	3.9220	3.9220	1.0050	6.91	0.94	0.750			
0.3191	20423.29	3.9190	3.9190	0.9747	6.91	0.94	0.750			
0.3220	20610.39	3.9160	3.9161	0.9862	6.90	0.93	0.750			
0.3250	20801.05	3.9130	3.9130	0.9960	6.89	0.92	0.750			
0.3280	20994.61	3.9100	3.9100	1.0073	6.88	0.91	0.750			
0.3311	21188.87	3.9070	3.9070	1.0104	6.87	0.90	0.750			
0.3341	21384.06	3.9040	3.9041	1.0237	6.86	0.89	0.750			
0.3372	21581.15	3.9010	3.9010	1.0362	6.86	0.89	0.750			
0.3403	21780.11	3.8980	3.8980	1.0494	6.85	0.88	0.750			
0.3435	21983.95	3.8950	3.8949	1.0550	6.85	0.88	0.750			
0.3467	22188.13	3.8920	3.8920	1.0692	6.84	0.87	0.750			
0.3499	22395.00	3.8890	3.8891	1.0814	6.83	0.86	0.750			
0.3532	22603.16	3.8860	3.8861	1.0946	6.82	0.85	0.750			
0.3565	22816.41	3.8830	3.8829	1.0938	6.81	0.84	0.750			
0.3598	23025.70	3.8800	3.8800	1.1141	6.80	0.83	0.750			
0.3631	23238.80	3.8770	3.8771	1.1296	6.80	0.83	0.750			
0.3665	23458.25	3.8740	3.8740	1.1484	6.79	0.82	0.750			
0.3700	23679.41	3.8710	3.8711	1.1622	6.78	0.81	0.750			
0.3735	23903.35	3.8680	3.8680	1.1827	6.77	0.80	0.750			
0.3771	24132.46	3.8650	3.8651	1.2063	6.76	0.79	0.750			
0.3808	24368.47	3.8620	3.8620	1.2128	6.75	0.78	0.750			
0.3845	24605.06	3.8590	3.8590	1.2373	6.74	0.77	0.750			
0.3882	24846.27	3.8560	3.8561	1.2516	6.73	0.76	0.750			
0.3921	25093.67	3.8530	3.8528	1.2486	6.71	0.74	0.750			
0.3958	25329.64	3.8500	3.8501	1.2654	6.70	0.73	0.750			
0.3996	25571.42	3.8470	3.8470	1.2818	6.69	0.72	0.750			
0.4034	25815.27	3.8440	3.8441	1.3066	6.68	0.71	0.750			
0.4072	26061.80	3.8410	3.8412	1.3488	6.67	0.70	0.750			
0.4115	26332.80	3.8380	3.8381	1.3825	6.66	0.69	0.750			
0.4157	26607.82	3.8350	3.8335	1.4081	6.65	0.68	0.750	0.418	0.952	
0.4201	26886.07	3.8320	3.8322	1.4293	6.64	0.67	0.750			
0.4243	27153.21	3.8290	3.8293	1.4402	6.62	0.65	0.750			
0.4287	27435.69	3.8260	3.8257	1.4452	6.61	0.64	0.750			
0.4330	27709.59	3.8230	3.8229	1.4608	6.59	0.62	0.750			
0.4373	27986.11	3.8200	3.8202	1.5029	6.57	0.60	0.750			
0.4419	28282.30	3.8170	3.8169	1.5507	6.55	0.58	0.750			
0.4467	28588.90	3.8140	3.8142	1.6026	6.54	0.57	0.750			
0.4515	28897.23	3.8110	3.8110	1.6481	6.52	0.55	0.750			
0.4566	29221.32	3.8080	3.8078	1.6867	6.51	0.54	0.750			
0.4617	29548.26	3.8050	3.8049	1.7209	6.49	0.52	0.750			
0.4670	29886.57	3.8020	3.8021	1.7303	6.47	0.50	0.750			
0.4722	30220.39	3.7990	3.7992	1.7822	6.46	0.49	0.750			
0.4776	30565.39	3.7960	3.7962	1.8010	6.44	0.47	0.750			
0.4831	30917.03	3.7930	3.7929	1.8652	6.42	0.45	0.750			
0.4887	31276.79	3.7900	3.7900	1.9039	6.40	0.43	0.750			
0.4945	31644.88	3.7870	3.7870	1.9614	6.39	0.42	0.750			
0.5005	32030.76	3.7840	3.7840	1.9849	6.37	0.40	0.750			
0.5066	32424.03	3.7810	3.7808	1.9992	6.35	0.38	0.750			
0.5123	32790.36	3.7780	3.7778	2.0485	6.33	0.36	0.750			
0.5186	33191.49	3.7750	3.7754	2.0482	6.31	0.34	0.750			
0.5248	33589.98	3.7720	3.7721	2.0811	6.29	0.32	0.750			
0.5311	33991.40	3.7690	3.7685	2.0737	6.27	0.30	0.750			
0.5374	34390.71	3.7660	3.7658	2.1334	6.25	0.28	0.750			
0.5436	34792.53	3.7630	3.7630	2.1207	6.23	0.26	0.750			
0.5502	35210.45	3.7600	3.7599	2.1397	6.20	0.23	0.750			
0.5568	35632.57	3.7570	3.7570	2.1828	6.17	0.20	0.750			
0.5634	36055.07	3.7540	3.7541	2.2182	6.16	0.19	0.750			
0.5702	36492.43	3.7510	3.7510	2.3105	6.14	0.17	0.750			
0.5772	36941.83	3.7480	3.7479	2.3325	6.11	0.14	0.750			
0.5845	37405.16	3.7450	3.7450	2.4039	6.08	0.11	0.750			
0.5917	37868.37	3.7420	3.7421	2.4065	6.07	0.10	0.750			
0.5988	38321.78	3.7390	3.7392	2.4512	6.06	0.09	0.750			
0.6062	38794.72	3.7360	3.7361	2.5389	6.04	0.07	0.750			
0.6142	39307.08	3.7330	3.7331	2.6631	6.02	0.05	0.750			
0.6223	39829.74	3.7300	3.7301	2.9147	6.00	0.03	0.750			
0.6313	40404.44	3.7270	3.7267	2.8560	5.99	0.02	0.750			
0.6399	40953.22	3.7240	3.7235	2.8496	5.97	0.00	0.750			
0.6482	41482.95	3.7210	3.7210	2.7675	5.96	-0.01	0.750			
0.6569	42039.15	3.7180	3.7178	2.8039	5.95	-0.02	0.750			
0.6651	42569.12	3.7150	3.7152	2.6404	5.93	-0.04	0.750			
0.6729	43067.97	3.7120	3.7120	2.4656	5.92	-0.05	0.750			
0.6797	43500.29	3.7090	3.7090	2.1481	5.92	-0.05	0.750			
0.6859	43894.88	3.7060	3.7059	1.9322	5.92	-0.05	0.750			
0.6912	44235.22	3.7030	3.7032	1.6967	5.91	-0.06	0.750			
0.6959	44536.53	3.7000	3.7002	1.4838	5.91	-0.06	0.750			
0.7000	44800.76	3.6970	3.6970	1.3259	5.92	-0.05	0.750			
0.7036	45031.47	3.6940	3.6940	1.1792	5.93	-0.04	0.750			
0.7067	45231.62	3.6910	3.6911	1.0486	5.93	-0.04	0.750			
0.7097	45422.56	3.6880	3.6880	0.9549	5.93	-0.04	0.750			
0.7124	45592.40	3.6850	3.6851	0.8920	5.94	-0.03	0.750			
0.7149	45755.64	3.6820	3.6820	0.8358	5.94	-0.03	0.750			
0.7173	45908.51	3.6790	3.6788	0.7798	5.94	-0.03	0.750			
0.7196	46052.86	3.6760	3.6761	0.7335	5.94	-0.03	0.750			
0.7217	46190.27	3.6730	3.6731	0.6885	5.95	-0.02	0.750			
0.7238	46320.49	3.6700	3.6700	0.6449	5.95	-0.02	0.750			
0.7256	46439.67	3.6670	3.6670	0.5898	5.96	-0.01	0.750			
0.7273	46548.35	3.6640	3.6640	0.5422	5.96	-0.01	0.750			
0.7289	46646.84	3.6610	3.6610	0.4965	5.97	-0.00	0.750			
0.7303	46737.69	3.6580	3.6578	0.4522	5.97	-0.00	0.750			
0.7315	46819.08	3.6550	3.6551	0.4082	5.97	0.00	0.750			
0.7327	46893.31	3.6520	3.6519	0.3674	5.98	0.01	0.750			
0.7338	46960.22	3.6490	3.6491	0.3274	5.98	0.01	0.750			
0.7347	47019.29	3.6460	3.6460	0.2894	5.98	0.01	0.750			
0.7355	47070.61	3.6430	3.6431	0.2498	5.98	0.01	0.750			
0.7362	47114.66	3.6400	3.6399	0.2104	5.98	0.01	0.750			
0.7367	47150.86	3.6370	3.6369	0.1713	5.98	0.01	0.750			
0.7372	47180.53	3.6340	3.6341	0.1336	5.99	0.02	0.750			
0.7375	47202.96	3.6310	3.6314	0.0950	5.99	0.02	0.750			
0.7378	47217.40	3.6280	3.6290	0.0555	5.99	0.02	0.750			
0.7379	47224.13	3.6250	3.6276	0.0054	5.99	0.02	0.750			
