Ah_balance (normalized)	Ah_balance (mAh)	Voltage - fit (V)	Voltage -  interpolate (V)	dQ/dV (1/V)	Temperature (°C)	Temperature - diff (°C)	Current (C)	R_DC 0ms (mOhm)	R_DC 50ms (mOhm)	R_DC 50 ms PEC (mOhm)
0.0942	6025.61	4.0100	4.0096	-0.0931	5.90	0.01	-0.750			
0.0945	6047.30	4.0070	4.0067	-0.1235	5.90	0.01	-0.750			
0.0949	6073.55	4.0040	4.0040	-0.1499	5.90	0.01	-0.750			
0.0954	6105.39	4.0010	4.0010	-0.1740	5.90	0.01	-0.750			
0.0960	6141.34	3.9980	3.9981	-0.1971	5.90	0.01	-0.750			
0.0966	6182.38	3.9950	3.9950	-0.2225	5.90	0.01	-0.750			
0.0973	6226.96	3.9920	3.9921	-0.2466	5.90	0.01	-0.750			
0.0981	6275.81	3.9890	3.9889	-0.2714	5.90	0.01	-0.750			
0.0989	6330.31	3.9860	3.9859	-0.2942	5.89	0.00	-0.750			
0.0998	6389.19	3.9830	3.9831	-0.3197	5.89	0.00	-0.750			
0.1008	6452.94	3.9800	3.9800	-0.3450	5.89	0.00	-0.750			
0.1019	6521.82	3.9770	3.9771	-0.3702	5.89	-0.00	-0.750			
0.1030	6594.96	3.9740	3.9740	-0.3945	5.89	-0.00	-0.750			
0.1043	6673.74	3.9710	3.9710	-0.4189	5.89	-0.00	-0.750			
0.1056	6756.88	3.9680	3.9680	-0.4435	5.88	-0.01	-0.750			
0.1069	6844.71	3.9650	3.9650	-0.4686	5.88	-0.01	-0.750			
0.1084	6936.56	3.9620	3.9621	-0.4908	5.88	-0.01	-0.750			
0.1099	7032.81	3.9590	3.9588	-0.5144	5.88	-0.01	-0.750			
0.1115	7134.44	3.9560	3.9560	-0.5350	5.87	-0.02	-0.750			
0.1131	7238.92	3.9530	3.9530	-0.5562	5.87	-0.02	-0.750			
0.1148	7348.33	3.9500	3.9501	-0.5732	5.87	-0.02	-0.750			
0.1166	7460.89	3.9470	3.9470	-0.5928	5.87	-0.02	-0.750			
0.1184	7576.48	3.9440	3.9440	-0.6090	5.86	-0.03	-0.750			
0.1202	7695.32	3.9410	3.9409	-0.6268	5.86	-0.03	-0.750			
0.1222	7818.27	3.9380	3.9380	-0.6398	5.86	-0.03	-0.750			
0.1241	7942.95	3.9350	3.9350	-0.6541	5.85	-0.04	-0.750			
0.1261	8070.06	3.9320	3.9321	-0.6672	5.85	-0.04	-0.750			
0.1281	8199.87	3.9290	3.9289	-0.6789	5.85	-0.04	-0.750			
0.1302	8330.04	3.9260	3.9260	-0.6874	5.85	-0.04	-0.750			
0.1323	8464.34	3.9230	3.9230	-0.6969	5.85	-0.04	-0.750			
0.1344	8598.58	3.9200	3.9200	-0.7036	5.85	-0.04	-0.750			
0.1365	8737.45	3.9170	3.9170	-0.7148	5.85	-0.04	-0.750			
0.1387	8873.92	3.9140	3.9141	-0.7184	5.85	-0.04	-0.750			
0.1408	9012.20	3.9110	3.9108	-0.7244	5.85	-0.04	-0.750			
0.1430	9151.58	3.9080	3.9080	-0.7327	5.85	-0.04	-0.750			
0.1452	9291.96	3.9050	3.9050	-0.7413	5.85	-0.04	-0.750			
0.1475	9436.86	3.9020	3.9020	-0.7456	5.85	-0.04	-0.750			
0.1497	9582.86	3.8990	3.8989	-0.7519	5.85	-0.04	-0.750			
0.1520	9727.70	3.8960	3.8962	-0.7530	5.85	-0.04	-0.750			
0.1542	9871.48	3.8930	3.8929	-0.7547	5.85	-0.04	-0.750			
0.1565	10015.63	3.8900	3.8900	-0.7602	5.86	-0.03	-0.750			
0.1588	10160.63	3.8870	3.8870	-0.7630	5.86	-0.03	-0.750			
0.1611	10309.40	3.8840	3.8839	-0.7720	5.86	-0.03	-0.750			
0.1634	10459.56	3.8810	3.8810	-0.7725	5.87	-0.02	-0.750			
0.1658	10608.52	3.8780	3.8780	-0.7733	5.87	-0.02	-0.750			
0.1681	10756.25	3.8750	3.8750	-0.7769	5.88	-0.01	-0.750			
0.1704	10904.94	3.8720	3.8720	-0.7734	5.88	-0.01	-0.750			
0.1727	11053.05	3.8690	3.8690	-0.7760	5.89	0.00	-0.750			
0.1750	11202.49	3.8660	3.8661	-0.7772	5.90	0.01	-0.750			
0.1774	11352.99	3.8630	3.8631	-0.7804	5.90	0.01	-0.750			
0.1797	11503.54	3.8600	3.8600	-0.7804	5.90	0.01	-0.750			
0.1821	11652.80	3.8570	3.8570	-0.7831	5.90	0.01	-0.750			
0.1844	11802.83	3.8540	3.8541	-0.7847	5.91	0.02	-0.750			
0.1868	11954.26	3.8510	3.8509	-0.7900	5.91	0.02	-0.750			
0.1892	12107.23	3.8480	3.8480	-0.7800	5.91	0.02	-0.750			
0.1916	12260.69	3.8450	3.8449	-0.7536	5.91	0.02	-0.750			
0.1938	12402.45	3.8420	3.8422	-0.7353	5.92	0.03	-0.750			
0.1959	12538.18	3.8390	3.8394	-0.7411	5.92	0.03	-0.750			
0.1980	12675.00	3.8360	3.8355	-0.7380	5.92	0.03	-0.750			
0.2002	12815.93	3.8330	3.8328	-0.7484	5.93	0.04	-0.750			
0.2025	12960.47	3.8300	3.8302	-0.7661	5.93	0.04	-0.750			
0.2049	13114.77	3.8270	3.8270	-0.7894	5.94	0.05	-0.750			
0.2074	13271.01	3.8240	3.8239	-0.8031	5.95	0.06	-0.750			
0.2097	13423.20	3.8210	3.8210	-0.7973	5.96	0.07	-0.750			
0.2122	13578.91	3.8180	3.8179	-0.8044	5.96	0.07	-0.750			
0.2146	13734.83	3.8150	3.8151	-0.8054	5.97	0.08	-0.750			
0.2170	13889.21	3.8120	3.8120	-0.8042	5.97	0.08	-0.750			
0.2194	14042.26	3.8090	3.8089	-0.8082	5.98	0.09	-0.750			
0.2218	14197.18	3.8060	3.8060	-0.8089	5.98	0.09	-0.750			
0.2243	14352.61	3.8030	3.8029	-0.8098	5.99	0.10	-0.750			
0.2267	14508.35	3.8000	3.8002	-0.8115	5.99	0.10	-0.750			
0.2291	14664.76	3.7970	3.7970	-0.8137	5.99	0.10	-0.750			
0.2316	14821.44	3.7940	3.7939	-0.8161	6.00	0.11	-0.750			
0.2340	14978.19	3.7910	3.7910	-0.8128	6.00	0.11	-0.750			
0.2365	15133.98	3.7880	3.7879	-0.8102	6.01	0.12	-0.750			
0.2389	15291.88	3.7850	3.7852	-0.8096	6.01	0.12	-0.750			
0.2414	15446.55	3.7820	3.7819	-0.8075	6.01	0.12	-0.750			
0.2437	15599.27	3.7790	3.7790	-0.8110	6.02	0.13	-0.750			
0.2462	15754.57	3.7760	3.7760	-0.8139	6.02	0.13	-0.750			
0.2486	15911.08	3.7730	3.7729	-0.8103	6.02	0.13	-0.750			
0.2511	16069.43	3.7700	3.7700	-0.8143	6.03	0.14	-0.750			
0.2535	16225.25	3.7670	3.7671	-0.8145	6.03	0.14	-0.750			
0.2560	16381.62	3.7640	3.7640	-0.8186	6.04	0.15	-0.750			
0.2584	16538.52	3.7610	3.7609	-0.8135	6.05	0.16	-0.750			
0.2608	16691.64	3.7580	3.7580	-0.8140	6.05	0.16	-0.750			
0.2633	16850.80	3.7550	3.7550	-0.8160	6.06	0.17	-0.750			
0.2658	17009.09	3.7520	3.7519	-0.8135	6.06	0.17	-0.750			
0.2682	17163.08	3.7490	3.7490	-0.8178	6.07	0.18	-0.750			
0.2706	17320.62	3.7460	3.7459	-0.8120	6.07	0.18	-0.750			
0.2730	17474.14	3.7430	3.7430	-0.8150	6.07	0.18	-0.750			
0.2755	17632.89	3.7400	3.7400	-0.8204	6.08	0.19	-0.750			
0.2780	17789.35	3.7370	3.7368	-0.8223	6.08	0.19	-0.750			
0.2804	17948.32	3.7340	3.7340	-0.8332	6.08	0.19	-0.750			
0.2830	18109.14	3.7310	3.7311	-0.8362	6.08	0.19	-0.750			
0.2855	18269.10	3.7280	3.7279	-0.8367	6.09	0.20	-0.750			
0.2880	18433.36	3.7250	3.7249	-0.8430	6.09	0.20	-0.750			
0.2905	18593.45	3.7220	3.7220	-0.8379	6.09	0.20	-0.750			
0.2930	18754.53	3.7190	3.7190	-0.8441	6.10	0.21	-0.750			
0.2956	18916.82	3.7160	3.7160	-0.8425	6.11	0.22	-0.750			
0.2981	19077.46	3.7130	3.7130	-0.8395	6.12	0.23	-0.750			
0.3006	19240.76	3.7100	3.7099	-0.8490	6.13	0.24	-0.750			
0.3032	19403.87	3.7070	3.7070	-0.8535	6.13	0.24	-0.750			
0.3057	19567.33	3.7040	3.7039	-0.8653	6.14	0.25	-0.750			
0.3083	19734.12	3.7010	3.7011	-0.8725	6.14	0.25	-0.750			
0.3110	19901.38	3.6980	3.6979	-0.8751	6.14	0.25	-0.750			
0.3136	20072.21	3.6950	3.6949	-0.8920	6.15	0.26	-0.750			
0.3163	20242.96	3.6920	3.6920	-0.9077	6.15	0.26	-0.750			
0.3190	20417.98	3.6890	3.6889	-0.9177	6.16	0.27	-0.750			
0.3218	20598.05	3.6860	3.6859	-0.9202	6.16	0.27	-0.750			
0.3246	20774.75	3.6830	3.6830	-0.9261	6.17	0.28	-0.750			
0.3274	20955.04	3.6800	3.6802	-0.9421	6.17	0.28	-0.750			
0.3303	21136.36	3.6770	3.6770	-0.9550	6.18	0.29	-0.750			
0.3331	21317.98	3.6740	3.6738	-0.9613	6.19	0.30	-0.750			
0.3360	21505.14	3.6710	3.6710	-0.9664	6.19	0.30	-0.750			
0.3390	21693.38	3.6680	3.6682	-0.9794	6.20	0.31	-0.750			
0.3419	21882.86	3.6650	3.6650	-0.9953	6.20	0.31	-0.750			
0.3449	22076.18	3.6620	3.6619	-0.9947	6.20	0.31	-0.750			
0.3479	22265.74	3.6590	3.6589	-0.9975	6.21	0.32	-0.750			
0.3508	22452.39	3.6560	3.6560	-1.0281	6.21	0.32	-0.750			
0.3539	22651.33	3.6530	3.6529	-1.0698	6.21	0.32	-0.750			
0.3573	22864.20	3.6500	3.6495	-1.0882	6.22	0.33	-0.750			
0.3606	23077.43	3.6470	3.6469	-1.1030	6.22	0.33	-0.750			
0.3640	23294.93	3.6440	3.6445	-1.1044	6.23	0.34	-0.750			
0.3675	23522.73	3.6410	3.6408	-1.1094	6.23	0.34	-0.750			
0.3708	23729.02	3.6380	3.6379	-1.0893	6.23	0.34	-0.750			
0.3738	23922.44	3.6350	3.6352	-1.0577	6.23	0.34	-0.750			
0.3769	24121.87	3.6320	3.6321	-1.0814	6.23	0.34	-0.750			
0.3802	24331.11	3.6290	3.6288	-1.1016	6.23	0.34	-0.750			
0.3835	24543.15	3.6260	3.6260	-1.1179	6.23	0.34	-0.750			
0.3869	24761.89	3.6230	3.6229	-1.1413	6.23	0.34	-0.750			
0.3904	24987.91	3.6200	3.6202	-1.1837	6.23	0.34	-0.750			
0.3940	25215.68	3.6170	3.6170	-1.1980	6.23	0.34	-0.750			
0.3976	25446.53	3.6140	3.6139	-1.2104	6.24	0.35	-0.750			
0.4012	25677.95	3.6110	3.6111	-1.2235	6.24	0.35	-0.750			
0.4050	25916.87	3.6080	3.6081	-1.2561	6.24	0.35	-0.750			
0.4088	26164.29	3.6050	3.6048	-1.2674	6.25	0.36	-0.750			
0.4126	26406.73	3.6020	3.6019	-1.2783	6.25	0.36	-0.750			
0.4164	26650.74	3.5990	3.5985	-1.2868	6.25	0.36	-0.750	0.463	1.084	
0.4203	26901.46	3.5960	3.5961	-1.3087	6.25	0.36	-0.750			
0.4243	27153.12	3.5930	3.5929	-1.3303	6.25	0.36	-0.750			
0.4282	27407.17	3.5900	3.5900	-1.3444	6.25	0.36	-0.750			
0.4323	27665.94	3.5870	3.5870	-1.3575	6.25	0.36	-0.750			
0.4365	27933.00	3.5840	3.5840	-1.3912	6.24	0.35	-0.750			
0.4407	28201.62	3.5810	3.5809	-1.3984	6.24	0.35	-0.750			
0.4449	28473.07	3.5780	3.5782	-1.4142	6.24	0.35	-0.750			
0.4491	28744.05	3.5750	3.5749	-1.4313	6.25	0.36	-0.750			
0.4534	29016.98	3.5720	3.5721	-1.4474	6.25	0.36	-0.750			
0.4578	29300.92	3.5690	3.5689	-1.4680	6.25	0.36	-0.750			
0.4623	29584.61	3.5660	3.5659	-1.4840	6.24	0.35	-0.750			
0.4667	29867.73	3.5630	3.5628	-1.5015	6.24	0.35	-0.750			
0.4713	30162.90	3.5600	3.5601	-1.5234	6.24	0.35	-0.750			
0.4759	30457.98	3.5570	3.5569	-1.5376	6.24	0.35	-0.750			
0.4805	30752.32	3.5540	3.5539	-1.5558	6.24	0.35	-0.750			
0.4852	31051.90	3.5510	3.5510	-1.5737	6.24	0.35	-0.750			
0.4900	31360.49	3.5480	3.5480	-1.5958	6.24	0.35	-0.750			
0.4948	31669.41	3.5450	3.5453	-1.5989	6.24	0.35	-0.750			
0.4997	31979.14	3.5420	3.5420	-1.6053	6.23	0.34	-0.750			
0.5045	32286.57	3.5390	3.5388	-1.6366	6.23	0.34	-0.750			
0.5094	32602.49	3.5360	3.5360	-1.6530	6.24	0.35	-0.750			
0.5144	32922.11	3.5330	3.5330	-1.6681	6.25	0.36	-0.750			
0.5194	33241.29	3.5300	3.5303	-1.6848	6.25	0.36	-0.750			
0.5245	33570.31	3.5270	3.5268	-1.6972	6.25	0.36	-0.750			
0.5297	33899.04	3.5240	3.5238	-1.7132	6.25	0.36	-0.750			
0.5348	34227.74	3.5210	3.5208	-1.7154	6.26	0.37	-0.750			
0.5399	34556.65	3.5180	3.5182	-1.7345	6.27	0.38	-0.750			
0.5452	34891.09	3.5150	3.5149	-1.7208	6.27	0.38	-0.750			
0.5504	35226.05	3.5120	3.5120	-1.7181	6.27	0.38	-0.750			
0.5555	35553.74	3.5090	3.5090	-1.7052	6.27	0.38	-0.750			
0.5608	35888.38	3.5060	3.5058	-1.7252	6.27	0.38	-0.750			
0.5658	36210.98	3.5030	3.5030	-1.7082	6.27	0.38	-0.750			
0.5709	36540.06	3.5000	3.5000	-1.6969	6.28	0.39	-0.750			
0.5760	36863.82	3.4970	3.4971	-1.7082	6.29	0.40	-0.750			
0.5811	37192.90	3.4940	3.4941	-1.6904	6.29	0.40	-0.750			
0.5862	37518.39	3.4910	3.4909	-1.6951	6.29	0.40	-0.750			
0.5914	37848.81	3.4880	3.4879	-1.6646	6.30	0.41	-0.750			
0.5964	38168.58	3.4850	3.4850	-1.6561	6.31	0.42	-0.750			
0.6013	38484.73	3.4820	3.4822	-1.6380	6.33	0.44	-0.750			
0.6061	38792.85	3.4790	3.4787	-1.6000	6.34	0.45	-0.750			
0.6109	39096.49	3.4760	3.4762	-1.5898	6.34	0.45	-0.750			
0.6156	39399.52	3.4730	3.4730	-1.5745	6.35	0.46	-0.750			
0.6203	39696.01	3.4700	3.4700	-1.5651	6.36	0.47	-0.750			
0.6250	40001.54	3.4670	3.4667	-1.5578	6.37	0.48	-0.750			
0.6297	40298.56	3.4640	3.4640	-1.5412	6.37	0.48	-0.750			
0.6344	40601.48	3.4610	3.4608	-1.5311	6.38	0.49	-0.750			
0.6390	40894.13	3.4580	3.4582	-1.4988	6.39	0.50	-0.750			
0.6433	41173.56	3.4550	3.4551	-1.4581	6.40	0.51	-0.750			
0.6477	41455.77	3.4520	3.4519	-1.4395	6.40	0.51	-0.750			
0.6520	41727.62	3.4490	3.4491	-1.4109	6.41	0.52	-0.750			
0.6561	41993.31	3.4460	3.4459	-1.3841	6.42	0.53	-0.750			
0.6603	42257.84	3.4430	3.4431	-1.3552	6.44	0.55	-0.750			
0.6644	42521.15	3.4400	3.4403	-1.3487	6.45	0.56	-0.750			
0.6684	42779.66	3.4370	3.4369	-1.3276	6.46	0.57	-0.750			
0.6723	43030.39	3.4340	3.4339	-1.2920	6.48	0.59	-0.750			
0.6762	43273.99	3.4310	3.4314	-1.2643	6.49	0.60	-0.750			
0.6800	43519.37	3.4280	3.4279	-1.2516	6.50	0.61	-0.750			
0.6837	43753.74	3.4250	3.4248	-1.2172	6.52	0.63	-0.750			
0.6873	43984.97	3.4220	3.4219	-1.1821	6.53	0.64	-0.750			
0.6907	44205.73	3.4190	3.4191	-1.1507	6.55	0.66	-0.750			
0.6942	44428.61	3.4160	3.4160	-1.1330	6.56	0.67	-0.750			
0.6976	44643.81	3.4130	3.4130	-1.1070	6.57	0.68	-0.750			
0.7008	44850.56	3.4100	3.4099	-1.0722	6.59	0.70	-0.750			
0.7040	45057.41	3.4070	3.4070	-1.0523	6.60	0.71	-0.750			
0.7071	45256.59	3.4040	3.4040	-1.0215	6.61	0.72	-0.750			
0.7102	45450.99	3.4010	3.4010	-0.9940	6.62	0.73	-0.750			
0.7131	45637.75	3.3980	3.3978	-0.9611	6.64	0.75	-0.750			
0.7159	45818.85	3.3950	3.3950	-0.9320	6.65	0.76	-0.750			
0.7187	45995.75	3.3920	3.3920	-0.9062	6.66	0.77	-0.750			
0.7214	46167.57	3.3890	3.3889	-0.8803	6.68	0.79	-0.750			
0.7239	46332.76	3.3860	3.3860	-0.8473	6.69	0.80	-0.750			
0.7265	46495.20	3.3830	3.3830	-0.8241	6.71	0.82	-0.750			
0.7289	46650.98	3.3800	3.3799	-0.7963	6.72	0.83	-0.750			
0.7313	46801.57	3.3770	3.3771	-0.7669	6.74	0.85	-0.750			
0.7335	46945.57	3.3740	3.3739	-0.7395	6.75	0.86	-0.750			
0.7357	47085.60	3.3710	3.3710	-0.7231	6.76	0.87	-0.750			
