Ah_balance (normalized)	Ah_balance (mAh)	Voltage - fit (V)	Voltage -  interpolate (V)	dQ/dV (1/V)	Temperature (°C)	Temperature - diff (°C)	Current (C)	R_DC 0ms (mOhm)	R_DC 50ms (mOhm)	R_DC 50 ms PEC (mOhm)
0.0940	6013.67	4.0090	4.0087	-0.0662	6.00	0.01	-0.750			
0.0942	6030.16	4.0060	4.0056	-0.0994	6.00	0.01	-0.750			
0.0946	6052.67	4.0030	4.0028	-0.1273	6.00	0.01	-0.750			
0.0950	6079.57	4.0000	4.0000	-0.1536	6.00	0.01	-0.750			
0.0955	6112.10	3.9970	3.9970	-0.1777	6.00	0.01	-0.750			
0.0961	6148.46	3.9940	3.9941	-0.2035	6.00	0.01	-0.750			
0.0967	6190.32	3.9910	3.9910	-0.2282	6.00	0.01	-0.750			
0.0974	6236.47	3.9880	3.9880	-0.2512	5.99	0.00	-0.750			
0.0982	6287.04	3.9850	3.9849	-0.2748	5.99	0.00	-0.750			
0.0991	6341.73	3.9820	3.9820	-0.3002	5.99	0.00	-0.750			
0.1000	6401.75	3.9790	3.9792	-0.3239	5.99	0.00	-0.750			
0.1010	6466.23	3.9760	3.9760	-0.3474	5.99	-0.00	-0.750			
0.1021	6535.07	3.9730	3.9730	-0.3713	5.99	-0.00	-0.750			
0.1033	6608.51	3.9700	3.9700	-0.3987	5.98	-0.01	-0.750			
0.1045	6687.54	3.9670	3.9671	-0.4235	5.98	-0.01	-0.750			
0.1058	6771.23	3.9640	3.9639	-0.4478	5.98	-0.01	-0.750			
0.1072	6859.34	3.9610	3.9610	-0.4729	5.98	-0.01	-0.750			
0.1086	6953.42	3.9580	3.9581	-0.4975	5.98	-0.01	-0.750			
0.1102	7051.16	3.9550	3.9550	-0.5220	5.97	-0.02	-0.750			
0.1118	7154.11	3.9520	3.9519	-0.5413	5.97	-0.02	-0.750			
0.1134	7260.09	3.9490	3.9489	-0.5595	5.97	-0.02	-0.750			
0.1152	7370.55	3.9460	3.9461	-0.5772	5.97	-0.02	-0.750			
0.1169	7482.98	3.9430	3.9430	-0.5916	5.97	-0.02	-0.750			
0.1187	7597.75	3.9400	3.9400	-0.6080	5.97	-0.02	-0.750			
0.1206	7716.80	3.9370	3.9369	-0.6201	5.97	-0.02	-0.750			
0.1224	7835.42	3.9340	3.9340	-0.6356	5.97	-0.02	-0.750			
0.1244	7959.16	3.9310	3.9311	-0.6543	5.97	-0.02	-0.750			
0.1264	8086.86	3.9280	3.9280	-0.6684	5.97	-0.02	-0.750			
0.1284	8217.73	3.9250	3.9249	-0.6761	5.98	-0.01	-0.750			
0.1304	8348.57	3.9220	3.9221	-0.6878	5.98	-0.01	-0.750			
0.1325	8481.60	3.9190	3.9191	-0.6946	5.98	-0.01	-0.750			
0.1347	8618.38	3.9160	3.9158	-0.6994	5.99	-0.00	-0.750			
0.1367	8750.40	3.9130	3.9130	-0.7059	5.99	-0.00	-0.750			
0.1388	8886.23	3.9100	3.9100	-0.7110	5.99	0.00	-0.750			
0.1410	9024.24	3.9070	3.9069	-0.7232	5.99	0.00	-0.750			
0.1432	9164.61	3.9040	3.9041	-0.7342	5.99	0.00	-0.750			
0.1454	9307.56	3.9010	3.9009	-0.7337	6.00	0.01	-0.750			
0.1477	9451.17	3.8980	3.8980	-0.7376	6.00	0.01	-0.750			
0.1499	9592.78	3.8950	3.8953	-0.7403	6.00	0.01	-0.750			
0.1521	9732.44	3.8920	3.8919	-0.7430	6.00	0.01	-0.750			
0.1543	9874.67	3.8890	3.8889	-0.7501	6.01	0.02	-0.750			
0.1565	10017.75	3.8860	3.8860	-0.7533	6.01	0.02	-0.750			
0.1588	10165.00	3.8830	3.8830	-0.7647	6.01	0.02	-0.750			
0.1611	10313.46	3.8800	3.8801	-0.7693	6.02	0.03	-0.750			
0.1635	10461.64	3.8770	3.8770	-0.7713	6.02	0.03	-0.750			
0.1658	10609.22	3.8740	3.8740	-0.7700	6.03	0.04	-0.750			
0.1681	10757.63	3.8710	3.8710	-0.7704	6.03	0.04	-0.750			
0.1704	10905.03	3.8680	3.8680	-0.7717	6.04	0.05	-0.750			
0.1727	11054.14	3.8650	3.8650	-0.7740	6.04	0.05	-0.750			
0.1750	11202.56	3.8620	3.8621	-0.7752	6.05	0.06	-0.750			
0.1774	11351.14	3.8590	3.8590	-0.7751	6.05	0.06	-0.750			
0.1797	11498.56	3.8560	3.8560	-0.7811	6.06	0.07	-0.750			
0.1820	11649.66	3.8530	3.8530	-0.7865	6.06	0.07	-0.750			
0.1844	11802.49	3.8500	3.8499	-0.7889	6.07	0.08	-0.750			
0.1868	11954.47	3.8470	3.8470	-0.7879	6.07	0.08	-0.750			
0.1892	12105.85	3.8440	3.8441	-0.7913	6.07	0.08	-0.750			
0.1915	12256.74	3.8410	3.8410	-0.7992	6.08	0.09	-0.750			
0.1940	12413.05	3.8380	3.8379	-0.7925	6.08	0.09	-0.750			
0.1963	12563.82	3.8350	3.8349	-0.7860	6.08	0.09	-0.750			
0.1987	12715.26	3.8320	3.8320	-0.7929	6.09	0.10	-0.750			
0.2011	12867.64	3.8290	3.8291	-0.7919	6.09	0.10	-0.750			
0.2034	13016.60	3.8260	3.8258	-0.7979	6.10	0.11	-0.750			
0.2058	13169.54	3.8230	3.8230	-0.7988	6.11	0.12	-0.750			
0.2082	13323.09	3.8200	3.8201	-0.7973	6.12	0.13	-0.750			
0.2106	13480.70	3.8170	3.8169	-0.8048	6.12	0.13	-0.750			
0.2131	13635.86	3.8140	3.8142	-0.8014	6.13	0.14	-0.750			
0.2154	13787.88	3.8110	3.8110	-0.7997	6.14	0.15	-0.750			
0.2178	13940.46	3.8080	3.8080	-0.8072	6.15	0.16	-0.750			
0.2202	14094.94	3.8050	3.8048	-0.7998	6.15	0.16	-0.750			
0.2227	14252.78	3.8020	3.8020	-0.8076	6.16	0.17	-0.750			
0.2251	14407.57	3.7990	3.7993	-0.8062	6.17	0.18	-0.750			
0.2275	14563.02	3.7960	3.7960	-0.8064	6.18	0.19	-0.750			
0.2300	14717.48	3.7930	3.7929	-0.8098	6.19	0.20	-0.750			
0.2323	14870.10	3.7900	3.7899	-0.8030	6.19	0.20	-0.750			
0.2348	15026.60	3.7870	3.7870	-0.8046	6.20	0.21	-0.750			
0.2372	15181.62	3.7840	3.7842	-0.8021	6.21	0.22	-0.750			
0.2396	15334.88	3.7810	3.7809	-0.8047	6.21	0.22	-0.750			
0.2420	15488.32	3.7780	3.7780	-0.8040	6.22	0.23	-0.750			
0.2444	15640.38	3.7750	3.7749	-0.8034	6.22	0.23	-0.750			
0.2468	15795.69	3.7720	3.7721	-0.8037	6.22	0.23	-0.750			
0.2493	15953.17	3.7690	3.7691	-0.8117	6.23	0.24	-0.750			
0.2517	16109.33	3.7660	3.7659	-0.8078	6.24	0.25	-0.750			
0.2541	16263.79	3.7630	3.7630	-0.8101	6.24	0.25	-0.750			
0.2565	16418.87	3.7600	3.7599	-0.8072	6.25	0.26	-0.750			
0.2590	16573.31	3.7570	3.7570	-0.8093	6.26	0.27	-0.750			
0.2614	16730.13	3.7540	3.7539	-0.8073	6.27	0.28	-0.750			
0.2638	16885.46	3.7510	3.7510	-0.8086	6.27	0.28	-0.750			
0.2662	17039.01	3.7480	3.7480	-0.8135	6.28	0.29	-0.750			
0.2687	17196.33	3.7450	3.7450	-0.8181	6.29	0.30	-0.750			
0.2711	17352.01	3.7420	3.7419	-0.8180	6.30	0.31	-0.750			
0.2736	17511.99	3.7390	3.7389	-0.8222	6.31	0.32	-0.750			
0.2761	17670.27	3.7360	3.7361	-0.8238	6.31	0.32	-0.750			
0.2786	17828.03	3.7330	3.7330	-0.8357	6.32	0.33	-0.750			
0.2811	17989.80	3.7300	3.7300	-0.8337	6.32	0.33	-0.750			
0.2836	18149.11	3.7270	3.7269	-0.8331	6.33	0.34	-0.750			
0.2861	18310.28	3.7240	3.7240	-0.8379	6.34	0.35	-0.750			
0.2886	18472.13	3.7210	3.7211	-0.8396	6.34	0.35	-0.750			
0.2911	18632.43	3.7180	3.7179	-0.8461	6.35	0.36	-0.750			
0.2936	18793.42	3.7150	3.7148	-0.8484	6.36	0.37	-0.750			
0.2962	18954.66	3.7120	3.7121	-0.8569	6.37	0.38	-0.750			
0.2988	19123.66	3.7090	3.7088	-0.8685	6.38	0.39	-0.750			
0.3014	19292.39	3.7060	3.7060	-0.8744	6.38	0.39	-0.750			
0.3041	19461.35	3.7030	3.7030	-0.8817	6.39	0.40	-0.750			
0.3067	19630.60	3.7000	3.7000	-0.8867	6.40	0.41	-0.750			
0.3094	19798.95	3.6970	3.6970	-0.8858	6.40	0.41	-0.750			
0.3120	19971.20	3.6940	3.6939	-0.8963	6.41	0.42	-0.750			
0.3147	20140.67	3.6910	3.6910	-0.9108	6.42	0.43	-0.750			
0.3175	20320.66	3.6880	3.6879	-0.9130	6.42	0.43	-0.750			
0.3202	20495.90	3.6850	3.6850	-0.9240	6.43	0.44	-0.750			
0.3230	20673.14	3.6820	3.6820	-0.9336	6.44	0.45	-0.750			
0.3258	20854.17	3.6790	3.6791	-0.9450	6.44	0.45	-0.750			
0.3287	21037.20	3.6760	3.6758	-0.9605	6.45	0.46	-0.750			
0.3316	21222.41	3.6730	3.6730	-0.9669	6.46	0.47	-0.750			
0.3345	21407.99	3.6700	3.6700	-0.9742	6.46	0.47	-0.750			
0.3375	21598.73	3.6670	3.6673	-1.0006	6.47	0.48	-0.750			
0.3405	21789.75	3.6640	3.6640	-1.0029	6.47	0.48	-0.750			
0.3435	21984.59	3.6610	3.6609	-1.0146	6.48	0.49	-0.750			
0.3466	22179.94	3.6580	3.6580	-1.0231	6.48	0.49	-0.750			
0.3497	22379.04	3.6550	3.6551	-1.0404	6.49	0.50	-0.750			
0.3528	22579.67	3.6520	3.6519	-1.0503	6.49	0.50	-0.750			
0.3560	22780.91	3.6490	3.6490	-1.0607	6.49	0.50	-0.750			
0.3591	22984.93	3.6460	3.6460	-1.0703	6.49	0.50	-0.750			
0.3624	23190.58	3.6430	3.6429	-1.0934	6.49	0.50	-0.750			
0.3657	23404.38	3.6400	3.6400	-1.1098	6.50	0.51	-0.750			
0.3691	23619.54	3.6370	3.6369	-1.1171	6.50	0.51	-0.750			
0.3724	23834.92	3.6340	3.6340	-1.1289	6.51	0.52	-0.750			
0.3758	24053.70	3.6310	3.6311	-1.1494	6.51	0.52	-0.750			
0.3793	24276.36	3.6280	3.6278	-1.1550	6.52	0.53	-0.750			
0.3828	24498.43	3.6250	3.6250	-1.1700	6.52	0.53	-0.750			
0.3863	24722.76	3.6220	3.6220	-1.1813	6.53	0.54	-0.750			
0.3899	24953.93	3.6190	3.6189	-1.2055	6.53	0.54	-0.750			
0.3935	25186.35	3.6160	3.6159	-1.2231	6.54	0.55	-0.750			
0.3972	25421.03	3.6130	3.6130	-1.2329	6.55	0.56	-0.750			
0.4009	25658.82	3.6100	3.6101	-1.2527	6.55	0.56	-0.750			
0.4048	25906.29	3.6070	3.6070	-1.2756	6.55	0.56	-0.750			
0.4086	26150.94	3.6040	3.6039	-1.2809	6.56	0.57	-0.750			
0.4125	26397.26	3.6010	3.6012	-1.2957	6.56	0.57	-0.750			
0.4164	26649.24	3.5980	3.5980	-1.3110	6.56	0.57	-0.750	0.496	1.109	
0.4203	26899.92	3.5950	3.5950	-1.3213	6.57	0.58	-0.750			
0.4243	27156.50	3.5920	3.5920	-1.3359	6.57	0.58	-0.750			
0.4284	27415.76	3.5890	3.5889	-1.3464	6.57	0.58	-0.750			
0.4324	27673.19	3.5860	3.5859	-1.3603	6.58	0.59	-0.750			
0.4365	27935.01	3.5830	3.5832	-1.3800	6.58	0.59	-0.750			
0.4406	28201.36	3.5800	3.5798	-1.3879	6.58	0.59	-0.750			
0.4449	28471.22	3.5770	3.5770	-1.4039	6.59	0.60	-0.750			
0.4491	28740.37	3.5740	3.5741	-1.4297	6.59	0.60	-0.750			
0.4533	29012.42	3.5710	3.5710	-1.4575	6.59	0.60	-0.750			
0.4578	29298.77	3.5680	3.5679	-1.4812	6.59	0.60	-0.750			
0.4623	29585.35	3.5650	3.5652	-1.5004	6.59	0.60	-0.750			
0.4668	29874.17	3.5620	3.5619	-1.5266	6.59	0.60	-0.750			
0.4715	30175.73	3.5590	3.5593	-1.5460	6.59	0.60	-0.750			
0.4762	30473.95	3.5560	3.5560	-1.5461	6.59	0.60	-0.750			
0.4808	30770.00	3.5530	3.5528	-1.5636	6.60	0.61	-0.750			
0.4854	31063.37	3.5500	3.5498	-1.6138	6.61	0.62	-0.750			
0.4901	31369.12	3.5470	3.5470	-1.6842	6.61	0.62	-0.750			
0.4954	31702.52	3.5440	3.5439	-1.7302	6.61	0.62	-0.750			
0.5006	32041.25	3.5410	3.5409	-1.7459	6.61	0.62	-0.750			
0.5061	32390.32	3.5380	3.5381	-1.7512	6.62	0.63	-0.750			
0.5116	32743.25	3.5350	3.5349	-1.7469	6.63	0.64	-0.750			
0.5167	33068.59	3.5320	3.5319	-1.7239	6.63	0.64	-0.750			
0.5216	33383.88	3.5290	3.5288	-1.6726	6.63	0.64	-0.750			
0.5267	33710.79	3.5260	3.5259	-1.6847	6.63	0.64	-0.750			
0.5317	34031.10	3.5230	3.5231	-1.6852	6.64	0.65	-0.750			
0.5368	34353.39	3.5200	3.5198	-1.6947	6.65	0.66	-0.750			
0.5419	34680.45	3.5170	3.5169	-1.6919	6.65	0.66	-0.750			
0.5470	35006.84	3.5140	3.5139	-1.7052	6.65	0.66	-0.750			
0.5521	35333.45	3.5110	3.5110	-1.7248	6.65	0.66	-0.750			
0.5572	35663.23	3.5080	3.5081	-1.7179	6.66	0.67	-0.750			
0.5624	35994.88	3.5050	3.5051	-1.7014	6.67	0.68	-0.750			
0.5674	36315.21	3.5020	3.5019	-1.6951	6.67	0.68	-0.750			
0.5726	36643.41	3.4990	3.4991	-1.6813	6.67	0.68	-0.750			
0.5776	36965.17	3.4960	3.4960	-1.6794	6.67	0.68	-0.750			
0.5826	37285.95	3.4930	3.4929	-1.6688	6.68	0.69	-0.750			
0.5875	37601.44	3.4900	3.4902	-1.6640	6.69	0.70	-0.750			
0.5925	37920.93	3.4870	3.4871	-1.6503	6.70	0.71	-0.750			
0.5975	38239.56	3.4840	3.4840	-1.6404	6.71	0.72	-0.750			
0.6024	38554.80	3.4810	3.4811	-1.6330	6.71	0.72	-0.750			
0.6072	38863.32	3.4780	3.4779	-1.5982	6.72	0.73	-0.750			
0.6120	39166.04	3.4750	3.4749	-1.5793	6.73	0.74	-0.750			
0.6167	39469.34	3.4720	3.4719	-1.5595	6.74	0.75	-0.750			
0.6213	39764.47	3.4690	3.4691	-1.5495	6.74	0.75	-0.750			
0.6260	40062.44	3.4660	3.4661	-1.5302	6.75	0.76	-0.750			
0.6305	40354.40	3.4630	3.4630	-1.5091	6.76	0.77	-0.750			
0.6351	40648.29	3.4600	3.4600	-1.4940	6.77	0.78	-0.750			
0.6395	40929.76	3.4570	3.4570	-1.4800	6.77	0.78	-0.750			
0.6440	41214.44	3.4540	3.4540	-1.4544	6.79	0.80	-0.750			
0.6483	41490.88	3.4510	3.4509	-1.4356	6.80	0.81	-0.750			
0.6526	41763.34	3.4480	3.4478	-1.4044	6.81	0.82	-0.750			
0.6568	42034.08	3.4450	3.4450	-1.3837	6.82	0.83	-0.750			
0.6608	42294.25	3.4420	3.4420	-1.3661	6.83	0.84	-0.750			
0.6649	42554.23	3.4390	3.4390	-1.3305	6.84	0.85	-0.750			
0.6689	42808.24	3.4360	3.4359	-1.3029	6.85	0.86	-0.750			
0.6728	43059.97	3.4330	3.4330	-1.2824	6.86	0.87	-0.750			
0.6766	43301.56	3.4300	3.4299	-1.2533	6.88	0.89	-0.750			
0.6803	43542.20	3.4270	3.4270	-1.2255	6.89	0.90	-0.750			
0.6840	43774.87	3.4240	3.4239	-1.1906	6.90	0.91	-0.750			
0.6875	43997.00	3.4210	3.4212	-1.1603	6.91	0.92	-0.750			
0.6910	44220.84	3.4180	3.4180	-1.1401	6.92	0.93	-0.750			
0.6943	44434.37	3.4150	3.4150	-1.1088	6.93	0.94	-0.750			
0.6976	44644.81	3.4120	3.4118	-1.0803	6.94	0.95	-0.750			
0.7008	44849.29	3.4090	3.4092	-1.0558	6.95	0.96	-0.750			
0.7039	45050.74	3.4060	3.4060	-1.0342	6.97	0.98	-0.750			
0.7070	45248.61	3.4030	3.4029	-1.0052	6.98	0.99	-0.750			
0.7099	45435.76	3.4000	3.4000	-0.9696	7.00	1.01	-0.750			
0.7128	45621.66	3.3970	3.3972	-0.9460	7.01	1.02	-0.750			
0.7156	45800.06	3.3940	3.3940	-0.9205	7.03	1.04	-0.750			
0.7183	45973.98	3.3910	3.3909	-0.8925	7.04	1.05	-0.750			
0.7210	46141.34	3.3880	3.3880	-0.8650	7.05	1.06	-0.750			
0.7235	46305.47	3.3850	3.3850	-0.8420	7.06	1.07	-0.750			
0.7260	46465.00	3.3820	3.3820	-0.8150	7.07	1.08	-0.750			
0.7284	46618.71	3.3790	3.3790	-0.7862	7.09	1.10	-0.750			
0.7307	46767.99	3.3760	3.3760	-0.7576	7.10	1.11	-0.750			
0.7330	46909.52	3.3730	3.3730	-0.7326	7.11	1.12	-0.750			
0.7351	47047.14	3.3700	3.3700	-0.6935	7.12	1.13	-0.750			
