Ah_balance (normalized)	Ah_balance (mAh)	Voltage - fit (V)	Voltage -  interpolate (V)	dQ/dV (1/V)	Temperature (°C)	Temperature - diff (°C)	Current (C)	R_DC 0ms (mOhm)	R_DC 50ms (mOhm)	R_DC 50 ms PEC (mOhm)
0.1807	11563.97	4.0780	4.0779	0.7936	7.32	1.35	0.750			
0.1830	11710.13	4.0750	4.0751	0.7768	7.32	1.35	0.750			
0.1853	11860.10	4.0720	4.0720	0.7845	7.32	1.35	0.750			
0.1877	12011.26	4.0690	4.0691	0.7971	7.31	1.34	0.750			
0.1901	12166.61	4.0660	4.0659	0.7999	7.31	1.34	0.750			
0.1925	12320.75	4.0630	4.0630	0.7963	7.30	1.33	0.750			
0.1949	12475.08	4.0600	4.0602	0.8013	7.30	1.33	0.750			
0.1973	12628.57	4.0570	4.0570	0.8028	7.30	1.33	0.750			
0.1997	12780.68	4.0540	4.0539	0.8022	7.29	1.32	0.750			
0.2021	12932.88	4.0510	4.0509	0.8099	7.29	1.32	0.750			
0.2045	13091.09	4.0480	4.0481	0.8077	7.29	1.32	0.750			
0.2070	13251.03	4.0450	4.0450	0.8207	7.28	1.31	0.750			
0.2095	13408.18	4.0420	4.0420	0.8187	7.28	1.31	0.750			
0.2120	13565.05	4.0390	4.0391	0.8170	7.27	1.30	0.750			
0.2144	13721.29	4.0360	4.0358	0.8108	7.27	1.30	0.750			
0.2168	13876.43	4.0330	4.0329	0.8080	7.27	1.30	0.750			
0.2192	14029.27	4.0300	4.0302	0.8069	7.26	1.29	0.750			
0.2216	14183.34	4.0270	4.0271	0.8248	7.26	1.29	0.750			
0.2241	14341.69	4.0240	4.0239	0.8285	7.25	1.28	0.750			
0.2266	14503.62	4.0210	4.0208	0.8343	7.25	1.28	0.750			
0.2291	14665.14	4.0180	4.0181	0.8390	7.24	1.27	0.750			
0.2317	14828.19	4.0150	4.0152	0.8379	7.24	1.27	0.750			
0.2342	14989.13	4.0120	4.0120	0.8402	7.23	1.26	0.750			
0.2367	15147.76	4.0090	4.0090	0.8360	7.23	1.26	0.750			
0.2392	15307.28	4.0060	4.0057	0.8382	7.22	1.25	0.750			
0.2417	15470.17	4.0030	4.0030	0.8424	7.22	1.25	0.750			
0.2442	15631.61	4.0000	4.0001	0.8473	7.21	1.24	0.750			
0.2468	15795.33	3.9970	3.9971	0.8568	7.21	1.24	0.750			
0.2494	15959.78	3.9940	3.9940	0.8556	7.20	1.23	0.750			
0.2519	16124.45	3.9910	3.9909	0.8596	7.20	1.23	0.750			
0.2546	16293.20	3.9880	3.9880	0.8618	7.19	1.22	0.750			
0.2571	16451.51	3.9850	3.9852	0.8857	7.19	1.22	0.750			
0.2597	16621.35	3.9820	3.9820	0.9176	7.18	1.21	0.750			
0.2625	16801.14	3.9790	3.9790	0.9411	7.17	1.20	0.750			
0.2654	16988.32	3.9760	3.9758	0.9443	7.17	1.20	0.750			
0.2684	17175.12	3.9730	3.9735	0.9517	7.16	1.19	0.750			
0.2713	17366.09	3.9700	3.9702	0.9515	7.16	1.19	0.750			
0.2742	17548.44	3.9670	3.9670	0.9313	7.15	1.18	0.750			
0.2768	17714.28	3.9640	3.9639	0.8931	7.15	1.18	0.750			
0.2795	17887.14	3.9610	3.9610	0.8943	7.15	1.18	0.750			
0.2822	18058.62	3.9580	3.9581	0.9028	7.14	1.17	0.750			
0.2849	18232.40	3.9550	3.9550	0.9102	7.14	1.17	0.750			
0.2876	18407.92	3.9520	3.9520	0.9133	7.13	1.16	0.750			
0.2904	18584.00	3.9490	3.9491	0.9201	7.13	1.16	0.750			
0.2931	18761.55	3.9460	3.9460	0.9227	7.12	1.15	0.750			
0.2959	18938.10	3.9430	3.9430	0.9304	7.11	1.14	0.750			
0.2987	19117.88	3.9400	3.9400	0.9372	7.10	1.13	0.750			
0.3015	19297.34	3.9370	3.9369	0.9397	7.09	1.12	0.750			
0.3044	19480.07	3.9340	3.9340	0.9436	7.09	1.12	0.750			
0.3072	19661.89	3.9310	3.9311	0.9523	7.08	1.11	0.750			
0.3101	19845.03	3.9280	3.9281	0.9585	7.08	1.11	0.750			
0.3129	20028.65	3.9250	3.9249	0.9654	7.07	1.10	0.750			
0.3159	20215.04	3.9220	3.9220	0.9704	7.06	1.09	0.750			
0.3188	20401.55	3.9190	3.9190	0.9828	7.05	1.08	0.750			
0.3217	20591.23	3.9160	3.9160	0.9948	7.05	1.08	0.750			
0.3248	20785.06	3.9130	3.9130	1.0053	7.04	1.07	0.750			
0.3278	20978.99	3.9100	3.9100	1.0072	7.03	1.06	0.750			
0.3308	21172.78	3.9070	3.9071	1.0210	7.02	1.05	0.750			
0.3339	21368.57	3.9040	3.9040	1.0322	7.01	1.04	0.750			
0.3370	21568.70	3.9010	3.9010	1.0430	7.00	1.03	0.750			
0.3401	21768.81	3.8980	3.8980	1.0500	6.99	1.02	0.750			
0.3433	21972.70	3.8950	3.8950	1.0631	6.98	1.01	0.750			
0.3466	22179.54	3.8920	3.8920	1.0761	6.97	1.00	0.750			
0.3498	22386.96	3.8890	3.8890	1.0858	6.96	0.99	0.750			
0.3531	22596.18	3.8860	3.8861	1.0821	6.95	0.98	0.750			
0.3563	22803.17	3.8830	3.8830	1.0999	6.93	0.96	0.750			
0.3596	23015.62	3.8800	3.8800	1.1155	6.92	0.95	0.750			
0.3630	23231.94	3.8770	3.8769	1.1234	6.91	0.94	0.750			
0.3664	23447.35	3.8740	3.8741	1.1429	6.90	0.93	0.750			
0.3698	23668.82	3.8710	3.8711	1.1646	6.89	0.92	0.750			
0.3734	23895.45	3.8680	3.8680	1.1846	6.88	0.91	0.750			
0.3770	24125.33	3.8650	3.8649	1.1948	6.87	0.90	0.750			
0.3805	24355.03	3.8620	3.8621	1.2195	6.86	0.89	0.750			
0.3843	24592.49	3.8590	3.8591	1.2384	6.86	0.89	0.750			
0.3881	24835.42	3.8560	3.8558	1.2460	6.85	0.88	0.750			
0.3918	25072.61	3.8530	3.8530	1.2627	6.84	0.87	0.750			
0.3956	25315.78	3.8500	3.8502	1.2832	6.83	0.86	0.750			
0.3994	25564.15	3.8470	3.8471	1.3042	6.82	0.85	0.750			
0.4033	25813.37	3.8440	3.8440	1.3472	6.80	0.83	0.750			
0.4075	26078.20	3.8410	3.8410	1.3636	6.79	0.82	0.750			
0.4117	26350.39	3.8380	3.8378	1.3796	6.78	0.81	0.750			
0.4160	26623.04	3.8350	3.8352	1.4000	6.76	0.79	0.750	0.403	0.945	
0.4200	26882.03	3.8320	3.8323	1.4174	6.75	0.78	0.750			
0.4244	27159.39	3.8290	3.8288	1.4257	6.74	0.77	0.750			
0.4285	27425.92	3.8260	3.8260	1.4534	6.72	0.75	0.750			
0.4328	27700.88	3.8230	3.8232	1.5048	6.70	0.73	0.750			
0.4375	28000.49	3.8200	3.8200	1.5577	6.69	0.72	0.750			
0.4424	28312.18	3.8170	3.8171	1.5700	6.67	0.70	0.750			
0.4471	28614.48	3.8140	3.8141	1.6131	6.65	0.68	0.750			
0.4520	28925.16	3.8110	3.8109	1.6615	6.63	0.66	0.750			
0.4570	29248.25	3.8080	3.8078	1.6808	6.61	0.64	0.750			
0.4621	29571.48	3.8050	3.8052	1.7524	6.60	0.63	0.750			
0.4676	29923.65	3.8020	3.8021	1.7903	6.58	0.61	0.750			
0.4729	30268.71	3.7990	3.7991	1.8472	6.56	0.59	0.750			
0.4785	30622.11	3.7960	3.7960	1.8134	6.54	0.57	0.750			
0.4840	30976.87	3.7930	3.7929	1.8292	6.51	0.54	0.750			
0.4894	31321.96	3.7900	3.7900	1.8931	6.49	0.52	0.750			
0.4952	31694.70	3.7870	3.7871	1.9411	6.47	0.50	0.750			
0.5010	32066.08	3.7840	3.7839	1.9554	6.45	0.48	0.750			
0.5071	32453.00	3.7810	3.7811	2.0300	6.43	0.46	0.750			
0.5133	32849.29	3.7780	3.7780	2.0481	6.41	0.44	0.750			
0.5193	33234.03	3.7750	3.7749	2.0503	6.38	0.41	0.750			
0.5254	33627.77	3.7720	3.7721	2.1174	6.36	0.39	0.750			
0.5319	34044.73	3.7690	3.7690	2.1349	6.33	0.36	0.750			
0.5382	34444.33	3.7660	3.7662	2.1490	6.31	0.34	0.750			
0.5448	34867.97	3.7630	3.7627	2.2233	6.28	0.31	0.750			
0.5517	35307.81	3.7600	3.7597	2.2055	6.25	0.28	0.750			
0.5583	35729.65	3.7570	3.7569	2.1893	6.23	0.26	0.750			
0.5648	36147.13	3.7540	3.7542	2.2518	6.21	0.24	0.750			
0.5714	36568.04	3.7510	3.7509	2.2459	6.19	0.22	0.750			
0.5784	37020.46	3.7480	3.7481	2.3606	6.16	0.19	0.750			
0.5857	37484.01	3.7450	3.7451	2.4207	6.14	0.17	0.750			
0.5930	37950.72	3.7420	3.7418	2.4414	6.12	0.15	0.750			
0.6003	38421.91	3.7390	3.7391	2.4914	6.11	0.14	0.750			
0.6080	38913.54	3.7360	3.7358	2.5613	6.08	0.11	0.750			
0.6156	39400.44	3.7330	3.7332	2.6652	6.06	0.09	0.750			
0.6240	39935.83	3.7300	3.7300	2.7940	6.04	0.07	0.750			
0.6325	40479.08	3.7270	3.7272	2.8620	6.02	0.05	0.750			
0.6414	41049.19	3.7240	3.7242	2.8196	5.99	0.02	0.750			
0.6496	41574.85	3.7210	3.7210	2.6653	5.97	0.00	0.750			
0.6574	42075.77	3.7180	3.7179	2.5192	5.96	-0.01	0.750			
0.6649	42556.44	3.7150	3.7150	2.4159	5.95	-0.02	0.750			
0.6721	43015.94	3.7120	3.7120	2.2596	5.95	-0.02	0.750			
0.6785	43423.92	3.7090	3.7091	2.0107	5.95	-0.02	0.750			
0.6842	43786.02	3.7060	3.7060	1.7834	5.94	-0.03	0.750			
0.6891	44104.14	3.7030	3.7030	1.5615	5.93	-0.04	0.750			
0.6935	44384.26	3.7000	3.7001	1.4016	5.94	-0.03	0.750			
0.6972	44620.70	3.6970	3.6971	1.2295	5.94	-0.03	0.750			
0.7005	44833.98	3.6940	3.6939	1.1017	5.95	-0.02	0.750			
0.7036	45032.71	3.6910	3.6909	1.0081	5.95	-0.02	0.750			
0.7064	45209.09	3.6880	3.6881	0.9274	5.95	-0.02	0.750			
0.7090	45377.86	3.6850	3.6850	0.8680	5.95	-0.02	0.750			
0.7115	45537.55	3.6820	3.6819	0.8166	5.95	-0.02	0.750			
0.7139	45689.02	3.6790	3.6785	0.7744	5.95	-0.02	0.750			
0.7162	45834.24	3.6760	3.6760	0.7317	5.95	-0.02	0.750			
0.7183	45973.59	3.6730	3.6731	0.6910	5.96	-0.01	0.750			
0.7204	46103.47	3.6700	3.6699	0.6395	5.96	-0.01	0.750			
0.7222	46221.69	3.6670	3.6670	0.5892	5.96	-0.01	0.750			
0.7239	46327.84	3.6640	3.6640	0.5371	5.97	-0.00	0.750			
0.7254	46424.98	3.6610	3.6610	0.4883	5.97	-0.00	0.750			
0.7268	46512.70	3.6580	3.6579	0.4446	5.97	0.00	0.750			
0.7280	46593.77	3.6550	3.6551	0.4051	5.97	0.00	0.750			
0.7292	46667.74	3.6520	3.6519	0.3672	5.97	0.00	0.750			
0.7302	46734.99	3.6490	3.6489	0.3301	5.98	0.01	0.750			
0.7312	46794.10	3.6460	3.6461	0.2919	5.98	0.01	0.750			
0.7320	46847.90	3.6430	3.6430	0.2552	5.98	0.01	0.750			
0.7327	46893.77	3.6400	3.6399	0.2179	5.98	0.01	0.750			
0.7333	46931.78	3.6370	3.6369	0.1787	5.98	0.01	0.750			
0.7338	46962.87	3.6340	3.6342	0.1406	5.98	0.01	0.750			
0.7342	46986.68	3.6310	3.6314	0.1002	5.98	0.01	0.750			
0.7344	47001.89	3.6280	3.6289	0.0583	5.98	0.01	0.750			
0.7345	47009.30	3.6250	3.6262	0.0067	5.98	0.01	0.750			
