Ah_balance (normalized)	Ah_balance (mAh)	Voltage - fit (V)	Voltage -  interpolate (V)	dQ/dV (1/V)	Temperature (°C)	Temperature - diff (°C)	Current (C)	R_DC 0ms (mOhm)	R_DC 50ms (mOhm)	R_DC 50 ms PEC (mOhm)
0.1590	10173.28	4.0730	4.0730	0.7956	7.56	1.57	0.750			
0.1613	10322.04	4.0700	4.0701	0.7905	7.55	1.56	0.750			
0.1637	10476.59	4.0670	4.0671	0.8030	7.55	1.56	0.750			
0.1661	10632.36	4.0640	4.0636	0.8087	7.54	1.55	0.750			
0.1686	10788.87	4.0610	4.0611	0.8125	7.53	1.54	0.750			
0.1710	10945.94	4.0580	4.0581	0.8126	7.53	1.54	0.750			
0.1735	11102.62	4.0550	4.0550	0.8167	7.52	1.53	0.750			
0.1759	11258.61	4.0520	4.0520	0.8115	7.52	1.53	0.750			
0.1783	11414.06	4.0490	4.0489	0.8139	7.51	1.52	0.750			
0.1808	11571.39	4.0460	4.0460	0.8175	7.51	1.52	0.750			
0.1833	11728.12	4.0430	4.0430	0.8186	7.50	1.51	0.750			
0.1857	11885.73	4.0400	4.0400	0.8229	7.50	1.51	0.750			
0.1882	12043.14	4.0370	4.0370	0.8238	7.49	1.50	0.750			
0.1906	12200.92	4.0340	4.0339	0.8302	7.49	1.50	0.750			
0.1932	12362.74	4.0310	4.0310	0.8307	7.49	1.50	0.750			
0.1957	12523.34	4.0280	4.0280	0.8246	7.48	1.49	0.750			
0.1982	12681.94	4.0250	4.0251	0.8274	7.48	1.49	0.750			
0.2006	12839.33	4.0220	4.0222	0.8206	7.47	1.48	0.750			
0.2030	12994.82	4.0190	4.0189	0.8278	7.47	1.48	0.750			
0.2055	13151.71	4.0160	4.0160	0.8304	7.47	1.48	0.750			
0.2080	13312.53	4.0130	4.0130	0.8321	7.46	1.47	0.750			
0.2106	13475.36	4.0100	4.0100	0.8493	7.46	1.47	0.750			
0.2131	13638.83	4.0070	4.0071	0.8551	7.45	1.46	0.750			
0.2157	13803.29	4.0040	4.0037	0.8567	7.45	1.46	0.750			
0.2183	13968.87	4.0010	4.0011	0.8629	7.45	1.46	0.750			
0.2208	14134.00	3.9980	3.9981	0.8626	7.44	1.45	0.750			
0.2235	14301.82	3.9950	3.9951	0.8699	7.44	1.45	0.750			
0.2260	14467.17	3.9920	3.9920	0.8707	7.43	1.44	0.750			
0.2287	14634.66	3.9890	3.9889	0.8785	7.43	1.44	0.750			
0.2313	14805.58	3.9860	3.9860	0.8787	7.42	1.43	0.750			
0.2340	14974.59	3.9830	3.9830	0.8841	7.41	1.42	0.750			
0.2366	15144.94	3.9800	3.9801	0.8890	7.40	1.41	0.750			
0.2393	15315.97	3.9770	3.9770	0.8955	7.40	1.41	0.750			
0.2420	15487.06	3.9740	3.9741	0.8971	7.39	1.40	0.750			
0.2447	15660.58	3.9710	3.9709	0.8947	7.38	1.39	0.750			
0.2474	15832.99	3.9680	3.9681	0.9025	7.38	1.39	0.750			
0.2501	16007.44	3.9650	3.9650	0.9073	7.38	1.39	0.750			
0.2528	16180.93	3.9620	3.9619	0.9058	7.37	1.38	0.750			
0.2556	16355.47	3.9590	3.9591	0.9097	7.36	1.37	0.750			
0.2583	16529.02	3.9560	3.9560	0.9143	7.36	1.37	0.750			
0.2610	16705.15	3.9530	3.9530	0.9234	7.35	1.36	0.750			
0.2638	16883.65	3.9500	3.9500	0.9319	7.34	1.35	0.750			
0.2666	17061.60	3.9470	3.9469	0.9366	7.33	1.34	0.750			
0.2694	17244.37	3.9440	3.9439	0.9331	7.32	1.33	0.750			
0.2722	17422.93	3.9410	3.9411	0.9495	7.32	1.33	0.750			
0.2751	17605.38	3.9380	3.9380	0.9571	7.32	1.33	0.750			
0.2780	17789.71	3.9350	3.9348	0.9666	7.31	1.32	0.750			
0.2809	17977.78	3.9320	3.9321	0.9705	7.30	1.31	0.750			
0.2838	18164.15	3.9290	3.9291	0.9793	7.29	1.30	0.750			
0.2868	18353.85	3.9260	3.9261	0.9850	7.28	1.29	0.750			
0.2897	18542.68	3.9230	3.9230	0.9846	7.27	1.28	0.750			
0.2927	18732.94	3.9200	3.9199	0.9922	7.26	1.27	0.750			
0.2957	18923.70	3.9170	3.9171	0.9980	7.26	1.27	0.750			
0.2987	19115.89	3.9140	3.9140	1.0084	7.25	1.26	0.750			
0.3018	19312.37	3.9110	3.9111	1.0254	7.24	1.25	0.750			
0.3049	19510.53	3.9080	3.9079	1.0231	7.23	1.24	0.750			
0.3079	19705.21	3.9050	3.9051	1.0417	7.22	1.23	0.750			
0.3110	19905.22	3.9020	3.9020	1.0573	7.21	1.22	0.750			
0.3142	20110.74	3.8990	3.8990	1.0682	7.20	1.21	0.750			
0.3175	20319.54	3.8960	3.8959	1.0681	7.19	1.20	0.750			
0.3207	20523.83	3.8930	3.8932	1.0785	7.18	1.19	0.750			
0.3239	20730.38	3.8900	3.8901	1.0972	7.18	1.19	0.750			
0.3272	20943.71	3.8870	3.8869	1.1112	7.17	1.18	0.750			
0.3306	21155.57	3.8840	3.8840	1.1109	7.16	1.17	0.750			
0.3339	21369.46	3.8810	3.8811	1.1316	7.14	1.15	0.750			
0.3373	21590.36	3.8780	3.8782	1.1531	7.13	1.14	0.750			
0.3409	21816.85	3.8750	3.8747	1.1666	7.11	1.12	0.750			
0.3443	22038.17	3.8720	3.8721	1.1748	7.10	1.11	0.750			
0.3479	22264.38	3.8690	3.8691	1.1894	7.09	1.10	0.750			
0.3515	22496.52	3.8660	3.8660	1.2110	7.08	1.09	0.750			
0.3551	22727.74	3.8630	3.8631	1.2194	7.07	1.08	0.750			
0.3588	22961.42	3.8600	3.8601	1.2464	7.05	1.06	0.750			
0.3626	23203.32	3.8570	3.8570	1.2718	7.04	1.05	0.750			
0.3664	23452.51	3.8540	3.8537	1.2821	7.03	1.04	0.750			
0.3703	23699.00	3.8510	3.8511	1.2997	7.02	1.03	0.750			
0.3743	23955.53	3.8480	3.8481	1.3028	7.00	1.01	0.750			
0.3782	24203.86	3.8450	3.8448	1.3412	6.99	1.00	0.750			
0.3821	24457.40	3.8420	3.8421	1.3683	6.98	0.99	0.750			
0.3863	24721.86	3.8390	3.8391	1.4284	6.96	0.97	0.750			
0.3907	25003.39	3.8360	3.8360	1.4610	6.94	0.95	0.750	0.412	1.012	
0.3952	25295.49	3.8330	3.8333	1.4894	6.92	0.93	0.750			
0.3998	25588.07	3.8300	3.8301	1.5338	6.91	0.92	0.750			
0.4044	25880.39	3.8270	3.8268	1.5538	6.89	0.90	0.750			
0.4089	26170.81	3.8240	3.8240	1.5618	6.87	0.88	0.750			
0.4137	26475.59	3.8210	3.8212	1.6327	6.86	0.87	0.750			
0.4187	26795.63	3.8180	3.8181	1.6745	6.84	0.85	0.750			
0.4238	27122.46	3.8150	3.8150	1.6942	6.81	0.82	0.750			
0.4290	27455.86	3.8120	3.8122	1.7069	6.79	0.80	0.750			
0.4340	27778.70	3.8090	3.8091	1.7402	6.77	0.78	0.750			
0.4394	28118.68	3.8060	3.8059	1.7908	6.75	0.76	0.750			
0.4447	28461.31	3.8030	3.8028	1.8305	6.73	0.74	0.750			
0.4503	28818.53	3.8000	3.8003	1.8677	6.70	0.71	0.750			
0.4561	29188.66	3.7970	3.7968	1.9155	6.68	0.69	0.750			
0.4618	29558.09	3.7940	3.7939	1.9375	6.66	0.67	0.750			
0.4678	29940.54	3.7910	3.7913	1.9926	6.63	0.64	0.750			
0.4738	30325.17	3.7880	3.7878	2.0429	6.61	0.62	0.750			
0.4800	30720.09	3.7850	3.7850	2.0488	6.58	0.59	0.750			
0.4860	31107.12	3.7820	3.7820	2.0925	6.55	0.56	0.750			
0.4925	31517.07	3.7790	3.7789	2.1343	6.52	0.53	0.750			
0.4989	31929.09	3.7760	3.7761	2.1809	6.50	0.51	0.750			
0.5055	32352.92	3.7730	3.7730	2.2227	6.47	0.48	0.750			
0.5121	32777.04	3.7700	3.7699	2.2168	6.45	0.46	0.750			
0.5188	33205.44	3.7670	3.7671	2.2699	6.42	0.43	0.750			
0.5257	33646.95	3.7640	3.7639	2.3159	6.38	0.39	0.750			
0.5326	34087.44	3.7610	3.7611	2.3396	6.36	0.37	0.750			
0.5400	34558.48	3.7580	3.7579	2.4238	6.33	0.34	0.750			
0.5473	35024.09	3.7550	3.7549	2.4049	6.30	0.31	0.750			
0.5545	35485.51	3.7520	3.7521	2.4525	6.27	0.28	0.750			
0.5617	35950.65	3.7490	3.7489	2.5137	6.23	0.24	0.750			
0.5695	36445.63	3.7460	3.7461	2.6264	6.20	0.21	0.750			
0.5777	36969.69	3.7430	3.7430	2.7198	6.17	0.18	0.750			
0.5858	37493.60	3.7400	3.7401	2.8596	6.15	0.16	0.750			
0.5948	38067.01	3.7370	3.7369	2.9874	6.11	0.12	0.750			
0.6039	38649.98	3.7340	3.7340	3.0776	6.07	0.08	0.750			
0.6135	39265.32	3.7310	3.7309	3.2234	6.05	0.06	0.750			
0.6234	39897.90	3.7280	3.7280	3.1089	6.03	0.04	0.750			
0.6323	40466.63	3.7250	3.7248	2.8909	6.00	0.01	0.750			
0.6408	41008.14	3.7220	3.7221	2.7671	5.99	0.00	0.750			
0.6488	41524.87	3.7190	3.7189	2.5155	5.98	-0.01	0.750			
0.6558	41969.37	3.7160	3.7160	2.1671	5.97	-0.02	0.750			
0.6617	42350.25	3.7130	3.7131	1.8900	5.96	-0.03	0.750			
0.6669	42682.13	3.7100	3.7099	1.6371	5.95	-0.04	0.750			
0.6714	42971.05	3.7070	3.7069	1.4267	5.95	-0.04	0.750			
0.6752	43209.93	3.7040	3.7041	1.2517	5.95	-0.04	0.750			
0.6785	43424.22	3.7010	3.7007	1.1065	5.95	-0.04	0.750			
0.6815	43616.46	3.6980	3.6980	0.9968	5.95	-0.04	0.750			
0.6843	43795.94	3.6950	3.6949	0.9167	5.95	-0.04	0.750			
0.6869	43958.74	3.6920	3.6920	0.8569	5.96	-0.03	0.750			
0.6893	44118.12	3.6890	3.6890	0.8019	5.96	-0.03	0.750			
0.6917	44265.63	3.6860	3.6859	0.7510	5.96	-0.03	0.750			
0.6938	44405.92	3.6830	3.6831	0.7004	5.97	-0.02	0.750			
0.6959	44537.26	3.6800	3.6800	0.6463	5.97	-0.02	0.750			
0.6978	44656.76	3.6770	3.6771	0.5915	5.98	-0.01	0.750			
0.6994	44763.62	3.6740	3.6740	0.5353	5.98	-0.01	0.750			
0.7009	44860.03	3.6710	3.6709	0.4826	5.98	-0.01	0.750			
0.7023	44947.26	3.6680	3.6679	0.4358	5.99	-0.00	0.750			
0.7035	45024.67	3.6650	3.6649	0.3880	5.99	-0.00	0.750			
0.7046	45094.62	3.6620	3.6620	0.3477	5.99	0.00	0.750			
0.7056	45156.98	3.6590	3.6590	0.3087	5.99	0.00	0.750			
0.7064	45211.56	3.6560	3.6559	0.2688	6.00	0.01	0.750			
0.7072	45259.81	3.6530	3.6529	0.2311	6.00	0.01	0.750			
0.7078	45300.34	3.6500	3.6500	0.1936	6.00	0.01	0.750			
0.7083	45334.14	3.6470	3.6471	0.1568	6.00	0.01	0.750			
0.7088	45361.35	3.6440	3.6442	0.1188	6.00	0.01	0.750			
0.7091	45380.93	3.6410	3.6415	0.0773	6.00	0.01	0.750			
0.7092	45391.79	3.6380	3.6391	0.0346	6.00	0.01	0.750			
