Ah_balance (normalized)	Ah_balance (mAh)	Voltage - fit (V)	Voltage -  interpolate (V)	dQ/dV (1/V)	Temperature (°C)	Temperature - diff (°C)	Current (C)	R_DC 0ms (mOhm)	R_DC 50ms (mOhm)	R_DC 50 ms PEC (mOhm)
0.1784	11415.53	4.0820	4.0820	0.7729	7.52	1.53	0.750			
0.1806	11561.32	4.0790	4.0790	0.7620	7.51	1.52	0.750			
0.1829	11708.29	4.0760	4.0760	0.7691	7.50	1.51	0.750			
0.1853	11857.93	4.0730	4.0729	0.7723	7.49	1.50	0.750			
0.1876	12006.80	4.0700	4.0700	0.7736	7.49	1.50	0.750			
0.1900	12157.08	4.0670	4.0671	0.7726	7.48	1.49	0.750			
0.1923	12304.63	4.0640	4.0641	0.7723	7.47	1.48	0.750			
0.1946	12452.06	4.0610	4.0610	0.7770	7.46	1.47	0.750			
0.1969	12599.25	4.0580	4.0581	0.7812	7.46	1.47	0.750			
0.1992	12749.41	4.0550	4.0549	0.7849	7.45	1.46	0.750			
0.2016	12902.05	4.0520	4.0520	0.7899	7.44	1.45	0.750			
0.2040	13055.14	4.0490	4.0491	0.7946	7.44	1.45	0.750			
0.2064	13208.40	4.0460	4.0460	0.7968	7.43	1.44	0.750			
0.2088	13360.86	4.0430	4.0430	0.7964	7.43	1.44	0.750			
0.2111	13513.38	4.0400	4.0399	0.7998	7.42	1.43	0.750			
0.2135	13665.78	4.0370	4.0371	0.8030	7.41	1.42	0.750			
0.2160	13822.67	4.0340	4.0340	0.8019	7.41	1.42	0.750			
0.2184	13976.86	4.0310	4.0310	0.8133	7.40	1.41	0.750			
0.2208	14132.49	4.0280	4.0281	0.8140	7.40	1.41	0.750			
0.2233	14290.05	4.0250	4.0248	0.8194	7.39	1.40	0.750			
0.2257	14447.79	4.0220	4.0221	0.8212	7.38	1.39	0.750			
0.2282	14606.02	4.0190	4.0191	0.8243	7.38	1.39	0.750			
0.2307	14763.42	4.0160	4.0160	0.8298	7.37	1.38	0.750			
0.2332	14922.94	4.0130	4.0131	0.8303	7.36	1.37	0.750			
0.2357	15083.53	4.0100	4.0100	0.8364	7.35	1.36	0.750			
0.2382	15245.99	4.0070	4.0070	0.8420	7.34	1.35	0.750			
0.2408	15408.78	4.0040	4.0041	0.8407	7.34	1.35	0.750			
0.2433	15569.78	4.0010	4.0010	0.8458	7.33	1.34	0.750			
0.2458	15731.14	3.9980	3.9981	0.8467	7.32	1.33	0.750			
0.2483	15893.81	3.9950	3.9948	0.8485	7.31	1.32	0.750			
0.2509	16056.79	3.9920	3.9921	0.8554	7.30	1.31	0.750			
0.2535	16221.91	3.9890	3.9890	0.8582	7.30	1.31	0.750			
0.2561	16388.30	3.9860	3.9860	0.8647	7.29	1.30	0.750			
0.2587	16553.73	3.9830	3.9830	0.8653	7.28	1.29	0.750			
0.2613	16720.03	3.9800	3.9798	0.8692	7.27	1.28	0.750			
0.2639	16888.05	3.9770	3.9770	0.8732	7.26	1.27	0.750			
0.2665	17056.44	3.9740	3.9740	0.8763	7.25	1.26	0.750			
0.2691	17224.15	3.9710	3.9710	0.8816	7.24	1.25	0.750			
0.2718	17394.84	3.9680	3.9680	0.8862	7.24	1.25	0.750			
0.2745	17564.85	3.9650	3.9649	0.8876	7.23	1.24	0.750			
0.2771	17735.35	3.9620	3.9620	0.8931	7.22	1.23	0.750			
0.2798	17905.55	3.9590	3.9591	0.9075	7.22	1.23	0.750			
0.2825	18080.26	3.9560	3.9560	0.9255	7.21	1.22	0.750			
0.2853	18258.99	3.9530	3.9529	0.9420	7.20	1.21	0.750			
0.2882	18442.96	3.9500	3.9500	0.9454	7.19	1.20	0.750			
0.2911	18628.83	3.9470	3.9472	0.9540	7.18	1.19	0.750			
0.2940	18814.05	3.9440	3.9440	0.9509	7.17	1.18	0.750			
0.2968	18996.26	3.9410	3.9409	0.9501	7.16	1.17	0.750			
0.2996	19175.22	3.9380	3.9380	0.9420	7.15	1.16	0.750			
0.3024	19355.43	3.9350	3.9350	0.9445	7.14	1.15	0.750			
0.3053	19536.47	3.9320	3.9320	0.9517	7.13	1.14	0.750			
0.3082	19721.67	3.9290	3.9290	0.9571	7.12	1.13	0.750			
0.3110	19905.27	3.9260	3.9259	0.9618	7.11	1.12	0.750			
0.3139	20091.04	3.9230	3.9231	0.9678	7.10	1.11	0.750			
0.3168	20275.90	3.9200	3.9200	0.9765	7.09	1.10	0.750			
0.3197	20463.59	3.9170	3.9170	0.9877	7.08	1.09	0.750			
0.3227	20653.91	3.9140	3.9140	0.9943	7.07	1.08	0.750			
0.3257	20846.34	3.9110	3.9110	1.0035	7.06	1.07	0.750			
0.3288	21041.42	3.9080	3.9080	1.0211	7.05	1.06	0.750			
0.3318	21237.59	3.9050	3.9050	1.0331	7.04	1.05	0.750			
0.3349	21435.80	3.9020	3.9019	1.0437	7.03	1.04	0.750			
0.3381	21640.75	3.8990	3.8991	1.0434	7.02	1.03	0.750			
0.3413	21840.84	3.8960	3.8960	1.0572	7.01	1.02	0.750			
0.3445	22044.92	3.8930	3.8930	1.0678	6.99	1.00	0.750			
0.3477	22250.45	3.8900	3.8901	1.0764	6.98	0.99	0.750			
0.3509	22456.00	3.8870	3.8871	1.0836	6.96	0.97	0.750			
0.3541	22664.33	3.8840	3.8841	1.0980	6.95	0.96	0.750			
0.3575	22877.37	3.8810	3.8810	1.1163	6.94	0.95	0.750			
0.3609	23096.67	3.8780	3.8778	1.1327	6.93	0.94	0.750			
0.3642	23311.28	3.8750	3.8750	1.1414	6.92	0.93	0.750			
0.3677	23532.00	3.8720	3.8720	1.1626	6.91	0.92	0.750			
0.3712	23756.40	3.8690	3.8690	1.1827	6.90	0.91	0.750			
0.3748	23986.25	3.8660	3.8660	1.1868	6.89	0.90	0.750			
0.3784	24215.65	3.8630	3.8630	1.2033	6.88	0.89	0.750			
0.3820	24446.15	3.8600	3.8601	1.2322	6.86	0.87	0.750			
0.3857	24686.30	3.8570	3.8568	1.2499	6.85	0.86	0.750			
0.3895	24927.69	3.8540	3.8539	1.2660	6.84	0.85	0.750			
0.3933	25171.93	3.8510	3.8512	1.2830	6.82	0.83	0.750			
0.3972	25419.67	3.8480	3.8481	1.3130	6.81	0.82	0.750			
0.4011	25668.62	3.8450	3.8451	1.2535	6.79	0.80	0.750			
0.4044	25884.72	3.8420	3.8421	1.3042	6.78	0.79	0.750	0.415	0.910	
0.4084	26134.84	3.8390	3.8398	1.3582	6.76	0.77	0.750			
0.4124	26396.54	3.8360	3.8369	1.4308	6.75	0.76	0.750			
0.4170	26685.15	3.8330	3.8336	1.4861	6.73	0.74	0.750			
0.4222	27023.10	3.8300	3.8298	1.7024	6.71	0.72	0.750			
0.4265	27295.21	3.8270	3.8270	1.4776	6.70	0.71	0.750			
0.4310	27583.17	3.8240	3.8241	1.5166	6.68	0.69	0.750			
0.4356	27876.80	3.8210	3.8210	1.5384	6.65	0.66	0.750			
0.4402	28174.66	3.8180	3.8177	1.5489	6.64	0.65	0.750			
0.4449	28476.55	3.8150	3.8152	1.5757	6.62	0.63	0.750			
0.4497	28779.46	3.8120	3.8119	1.6087	6.61	0.62	0.750			
0.4545	29089.01	3.8090	3.8090	1.6487	6.58	0.59	0.750			
0.4595	29407.68	3.8060	3.8061	1.6362	6.56	0.57	0.750			
0.4645	29728.77	3.8030	3.8033	1.5518	6.54	0.55	0.750			
0.4688	30002.18	3.8000	3.8006	1.5116	6.53	0.54	0.750			
0.4732	30283.12	3.7970	3.7968	1.4868	6.51	0.52	0.750			
0.4775	30562.76	3.7940	3.7941	1.5475	6.49	0.50	0.750			
0.4821	30855.06	3.7910	3.7911	1.6308	6.48	0.49	0.750			
0.4876	31209.18	3.7880	3.7878	1.7924	6.45	0.46	0.750			
0.4930	31551.76	3.7850	3.7846	1.7798	6.43	0.44	0.750			
0.4984	31897.58	3.7820	3.7819	1.8181	6.41	0.42	0.750			
0.5040	32254.18	3.7790	3.7790	1.8285	6.39	0.40	0.750			
0.5095	32607.79	3.7760	3.7758	1.8698	6.38	0.39	0.750			
0.5150	32961.39	3.7730	3.7733	1.8608	6.35	0.36	0.750			
0.5208	33328.86	3.7700	3.7702	1.9014	6.32	0.33	0.750			
0.5266	33705.05	3.7670	3.7672	1.9174	6.30	0.31	0.750			
0.5324	34076.73	3.7640	3.7641	1.9309	6.28	0.29	0.750			
0.5382	34446.28	3.7610	3.7610	1.9501	6.26	0.27	0.750			
0.5439	34811.01	3.7580	3.7579	1.9688	6.25	0.26	0.750			
0.5499	35190.50	3.7550	3.7549	1.9656	6.23	0.24	0.750			
0.5558	35570.21	3.7520	3.7519	2.0412	6.21	0.22	0.750			
0.5620	35969.68	3.7490	3.7487	2.0705	6.19	0.20	0.750			
0.5683	36368.31	3.7460	3.7461	2.1369	6.17	0.18	0.750			
0.5749	36793.95	3.7430	3.7429	2.1451	6.15	0.16	0.750			
0.5814	37210.57	3.7400	3.7401	2.1855	6.13	0.14	0.750			
0.5880	37631.09	3.7370	3.7371	2.2659	6.10	0.11	0.750			
0.5950	38079.15	3.7340	3.7341	2.3405	6.08	0.09	0.750			
0.6023	38545.00	3.7310	3.7311	2.3960	6.06	0.07	0.750			
0.6095	39006.86	3.7280	3.7279	2.3739	6.05	0.06	0.750			
0.6165	39456.87	3.7250	3.7250	2.3273	6.04	0.05	0.750			
0.6237	39919.08	3.7220	3.7220	2.3507	6.02	0.03	0.750			
0.6307	40364.85	3.7190	3.7189	2.2461	6.00	0.01	0.750			
0.6374	40792.83	3.7160	3.7163	2.0790	5.99	-0.00	0.750			
0.6433	41171.62	3.7130	3.7130	1.9136	5.98	-0.01	0.750			
0.6487	41517.84	3.7100	3.7098	1.7085	5.97	-0.02	0.750			
0.6535	41826.50	3.7070	3.7073	1.5560	5.96	-0.03	0.750			
0.6579	42105.26	3.7040	3.7040	1.4025	5.96	-0.03	0.750			
0.6617	42350.75	3.7010	3.7010	1.2571	5.95	-0.04	0.750			
0.6652	42573.80	3.6980	3.6979	1.1397	5.95	-0.04	0.750			
0.6683	42773.32	3.6950	3.6951	1.0536	5.95	-0.04	0.750			
0.6714	42966.84	3.6920	3.6922	1.0039	5.95	-0.04	0.750			
0.6742	43150.93	3.6890	3.6889	0.9471	5.95	-0.04	0.750			
0.6770	43328.62	3.6860	3.6860	0.9056	5.95	-0.04	0.750			
0.6796	43496.46	3.6830	3.6831	0.8795	5.95	-0.04	0.750			
0.6822	43663.57	3.6800	3.6800	0.8590	5.95	-0.04	0.750			
0.6848	43828.11	3.6770	3.6769	0.8364	5.95	-0.04	0.750			
0.6872	43980.78	3.6740	3.6742	0.8019	5.95	-0.04	0.750			
0.6896	44133.95	3.6710	3.6711	0.7778	5.96	-0.03	0.750			
0.6919	44284.48	3.6680	3.6680	0.7498	5.96	-0.03	0.750			
0.6941	44424.50	3.6650	3.6650	0.7194	5.96	-0.03	0.750			
0.6962	44558.49	3.6620	3.6620	0.6840	5.97	-0.02	0.750			
0.6982	44686.60	3.6590	3.6589	0.6551	5.97	-0.02	0.750			
0.7001	44809.22	3.6560	3.6560	0.6263	5.97	-0.02	0.750			
0.7020	44926.72	3.6530	3.6530	0.5971	5.98	-0.01	0.750			
0.7037	45039.11	3.6500	3.6500	0.5658	5.98	-0.01	0.750			
0.7054	45145.90	3.6470	3.6470	0.5367	5.98	-0.01	0.750			
0.7070	45245.47	3.6440	3.6440	0.4988	5.98	-0.01	0.750			
0.7084	45338.95	3.6410	3.6410	0.4653	5.99	-0.00	0.750			
0.7098	45424.06	3.6380	3.6380	0.4300	5.99	-0.00	0.750			
0.7110	45502.60	3.6350	3.6349	0.3972	5.99	-0.00	0.750			
0.7121	45575.77	3.6320	3.6321	0.3644	5.99	0.00	0.750			
0.7132	45643.40	3.6290	3.6289	0.3292	5.99	0.00	0.750			
0.7141	45704.78	3.6260	3.6260	0.2892	5.99	0.00	0.750			
0.7150	45758.00	3.6230	3.6231	0.2551	6.00	0.01	0.750			
0.7157	45802.88	3.6200	3.6201	0.2117	6.00	0.01	0.750			
0.7162	45839.91	3.6170	3.6169	0.1683	6.00	0.01	0.750			
0.7167	45867.85	3.6140	3.6142	0.1240	6.00	0.01	0.750			
0.7170	45886.64	3.6110	3.6116	0.0806	6.00	0.01	0.750			
0.7171	45897.22	3.6080	3.6090	0.0402	6.00	0.01	0.750			
0.7172	45901.02	3.6050	3.6067	-0.0005	6.00	0.01	0.750			
