Ah_balance (normalized)	Ah_balance (mAh)	Voltage - fit (V)	Voltage -  interpolate (V)	dQ/dV (1/V)	Temperature (°C)	Temperature - diff (°C)	Current (C)	R_DC 0ms (mOhm)	R_DC 50ms (mOhm)	R_DC 50 ms PEC (mOhm)
0.0919	5880.94	4.0050	4.0043	-0.0764	5.99	0.00	-0.750			
0.0922	5899.41	4.0020	4.0018	-0.1078	5.99	0.00	-0.750			
0.0925	5922.75	3.9990	3.9987	-0.1353	5.99	0.00	-0.750			
0.0930	5951.75	3.9960	3.9959	-0.1614	5.99	0.00	-0.750			
0.0935	5985.30	3.9930	3.9931	-0.1873	5.99	-0.00	-0.750			
0.0941	6023.86	3.9900	3.9900	-0.2116	5.99	-0.00	-0.750			
0.0948	6068.07	3.9870	3.9870	-0.2354	5.99	-0.00	-0.750			
0.0955	6115.20	3.9840	3.9841	-0.2585	5.98	-0.01	-0.750			
0.0964	6166.90	3.9810	3.9810	-0.2823	5.98	-0.01	-0.750			
0.0972	6223.72	3.9780	3.9780	-0.3035	5.98	-0.01	-0.750			
0.0982	6284.58	3.9750	3.9750	-0.3239	5.98	-0.01	-0.750			
0.0992	6348.62	3.9720	3.9721	-0.3480	5.98	-0.01	-0.750			
0.1003	6417.36	3.9690	3.9690	-0.3701	5.97	-0.02	-0.750			
0.1014	6490.13	3.9660	3.9659	-0.3952	5.97	-0.02	-0.750			
0.1026	6568.37	3.9630	3.9630	-0.4178	5.97	-0.02	-0.750			
0.1039	6651.54	3.9600	3.9600	-0.4393	5.96	-0.03	-0.750			
0.1053	6738.90	3.9570	3.9570	-0.4609	5.96	-0.03	-0.750			
0.1067	6829.80	3.9540	3.9541	-0.4827	5.96	-0.03	-0.750			
0.1082	6923.67	3.9510	3.9510	-0.5012	5.96	-0.03	-0.750			
0.1097	7022.13	3.9480	3.9479	-0.5205	5.96	-0.03	-0.750			
0.1113	7123.63	3.9450	3.9450	-0.5381	5.96	-0.03	-0.750			
0.1130	7229.98	3.9420	3.9420	-0.5594	5.95	-0.04	-0.750			
0.1147	7340.82	3.9390	3.9390	-0.5697	5.95	-0.04	-0.750			
0.1164	7452.28	3.9360	3.9359	-0.5824	5.95	-0.04	-0.750			
0.1182	7564.19	3.9330	3.9333	-0.5933	5.95	-0.04	-0.750			
0.1200	7678.76	3.9300	3.9299	-0.6030	5.95	-0.04	-0.750			
0.1218	7795.82	3.9270	3.9269	-0.6117	5.95	-0.04	-0.750			
0.1236	7912.99	3.9240	3.9241	-0.6226	5.95	-0.04	-0.750			
0.1256	8035.50	3.9210	3.9210	-0.6364	5.95	-0.04	-0.750			
0.1275	8158.99	3.9180	3.9180	-0.6463	5.95	-0.04	-0.750			
0.1294	8283.27	3.9150	3.9149	-0.6497	5.95	-0.04	-0.750			
0.1314	8408.26	3.9120	3.9122	-0.6577	5.95	-0.04	-0.750			
0.1334	8536.67	3.9090	3.9090	-0.6644	5.95	-0.04	-0.750			
0.1354	8665.38	3.9060	3.9059	-0.6675	5.95	-0.04	-0.750			
0.1374	8793.30	3.9030	3.9030	-0.6764	5.95	-0.04	-0.750			
0.1395	8925.93	3.9000	3.9000	-0.6778	5.95	-0.04	-0.750			
0.1415	9056.41	3.8970	3.8968	-0.6819	5.95	-0.04	-0.750			
0.1436	9187.37	3.8940	3.8943	-0.6907	5.95	-0.04	-0.750			
0.1456	9318.35	3.8910	3.8909	-0.6953	5.95	-0.04	-0.750			
0.1477	9452.97	3.8880	3.8879	-0.7018	5.96	-0.03	-0.750			
0.1498	9589.43	3.8850	3.8851	-0.7006	5.96	-0.03	-0.750			
0.1520	9726.11	3.8820	3.8820	-0.7082	5.96	-0.03	-0.750			
0.1541	9863.40	3.8790	3.8789	-0.7045	5.97	-0.02	-0.750			
0.1562	9996.43	3.8760	3.8762	-0.7034	5.97	-0.02	-0.750			
0.1583	10130.36	3.8730	3.8730	-0.7050	5.97	-0.02	-0.750			
0.1604	10263.50	3.8700	3.8700	-0.7148	5.98	-0.01	-0.750			
0.1626	10404.02	3.8670	3.8669	-0.7168	5.98	-0.01	-0.750			
0.1648	10544.40	3.8640	3.8640	-0.7188	5.98	-0.01	-0.750			
0.1669	10682.46	3.8610	3.8610	-0.7165	5.99	-0.00	-0.750			
0.1691	10820.53	3.8580	3.8580	-0.7196	5.99	0.00	-0.750			
0.1712	10957.47	3.8550	3.8549	-0.7160	6.00	0.01	-0.750			
0.1733	11092.60	3.8520	3.8520	-0.7179	6.00	0.01	-0.750			
0.1755	11229.22	3.8490	3.8490	-0.7191	6.01	0.02	-0.750			
0.1777	11371.71	3.8460	3.8460	-0.7252	6.01	0.02	-0.750			
0.1799	11512.02	3.8430	3.8429	-0.7269	6.02	0.03	-0.750			
0.1820	11651.03	3.8400	3.8400	-0.7226	6.02	0.03	-0.750			
0.1842	11788.81	3.8370	3.8370	-0.7199	6.03	0.04	-0.750			
0.1864	11926.80	3.8340	3.8339	-0.7252	6.03	0.04	-0.750			
0.1885	12064.31	3.8310	3.8310	-0.7231	6.04	0.05	-0.750			
0.1907	12205.26	3.8280	3.8280	-0.7274	6.04	0.05	-0.750			
0.1929	12345.68	3.8250	3.8251	-0.7298	6.05	0.06	-0.750			
0.1951	12486.16	3.8220	3.8220	-0.7307	6.06	0.07	-0.750			
0.1973	12626.92	3.8190	3.8189	-0.7287	6.06	0.07	-0.750			
0.1995	12766.23	3.8160	3.8160	-0.7280	6.07	0.08	-0.750			
0.2016	12905.19	3.8130	3.8130	-0.7262	6.08	0.09	-0.750			
0.2038	13046.07	3.8100	3.8100	-0.7286	6.08	0.09	-0.750			
0.2060	13185.22	3.8070	3.8070	-0.7295	6.09	0.10	-0.750			
0.2082	13325.74	3.8040	3.8041	-0.7268	6.09	0.10	-0.750			
0.2104	13463.71	3.8010	3.8009	-0.7358	6.10	0.11	-0.750			
0.2126	13606.83	3.7980	3.7979	-0.7340	6.10	0.11	-0.750			
0.2148	13747.64	3.7950	3.7950	-0.7348	6.10	0.11	-0.750			
0.2170	13888.72	3.7920	3.7919	-0.7359	6.11	0.12	-0.750			
0.2192	14031.20	3.7890	3.7889	-0.7365	6.11	0.12	-0.750			
0.2214	14172.29	3.7860	3.7859	-0.7350	6.12	0.13	-0.750			
0.2236	14312.88	3.7830	3.7830	-0.7405	6.13	0.14	-0.750			
0.2258	14453.15	3.7800	3.7800	-0.7373	6.13	0.14	-0.750			
0.2281	14598.49	3.7770	3.7769	-0.7445	6.14	0.15	-0.750			
0.2303	14740.43	3.7740	3.7742	-0.7459	6.15	0.16	-0.750			
0.2326	14883.75	3.7710	3.7709	-0.7460	6.16	0.17	-0.750			
0.2348	15027.39	3.7680	3.7680	-0.7493	6.16	0.17	-0.750			
0.2371	15171.31	3.7650	3.7650	-0.7538	6.17	0.18	-0.750			
0.2393	15314.06	3.7620	3.7618	-0.7570	6.18	0.19	-0.750			
0.2416	15463.65	3.7590	3.7590	-0.7628	6.18	0.19	-0.750			
0.2439	15609.74	3.7560	3.7560	-0.7659	6.19	0.20	-0.750			
0.2462	15756.82	3.7530	3.7530	-0.7703	6.19	0.20	-0.750			
0.2485	15905.95	3.7500	3.7500	-0.7783	6.20	0.21	-0.750			
0.2508	16054.16	3.7470	3.7469	-0.7763	6.20	0.21	-0.750			
0.2532	16206.70	3.7440	3.7440	-0.7790	6.21	0.22	-0.750			
0.2555	16354.67	3.7410	3.7410	-0.7834	6.21	0.22	-0.750			
0.2579	16505.48	3.7380	3.7380	-0.7932	6.22	0.23	-0.750			
0.2603	16656.74	3.7350	3.7350	-0.7966	6.22	0.23	-0.750			
0.2627	16811.34	3.7320	3.7319	-0.8026	6.23	0.24	-0.750			
0.2651	16968.18	3.7290	3.7290	-0.8070	6.23	0.24	-0.750			
0.2676	17123.53	3.7260	3.7261	-0.8126	6.24	0.25	-0.750			
0.2700	17278.65	3.7230	3.7230	-0.8182	6.24	0.25	-0.750			
0.2724	17433.66	3.7200	3.7199	-0.8221	6.25	0.26	-0.750			
0.2749	17592.67	3.7170	3.7170	-0.8325	6.26	0.27	-0.750			
0.2774	17754.37	3.7140	3.7140	-0.8363	6.26	0.27	-0.750			
0.2800	17918.20	3.7110	3.7111	-0.8508	6.27	0.28	-0.750			
0.2825	18082.01	3.7080	3.7079	-0.8583	6.28	0.29	-0.750			
0.2851	18245.14	3.7050	3.7049	-0.8622	6.28	0.29	-0.750			
0.2877	18411.93	3.7020	3.7019	-0.8689	6.29	0.30	-0.750			
0.2903	18579.60	3.6990	3.6990	-0.8680	6.30	0.31	-0.750			
0.2930	18749.22	3.6960	3.6961	-0.8779	6.31	0.32	-0.750			
0.2956	18917.69	3.6930	3.6930	-0.8837	6.31	0.32	-0.750			
0.2982	19084.70	3.6900	3.6900	-0.8855	6.32	0.33	-0.750			
0.3009	19255.47	3.6870	3.6870	-0.8935	6.32	0.33	-0.750			
0.3035	19426.99	3.6840	3.6840	-0.9032	6.33	0.34	-0.750			
0.3063	19603.06	3.6810	3.6811	-0.9174	6.33	0.34	-0.750			
0.3091	19781.25	3.6780	3.6780	-0.9273	6.34	0.35	-0.750			
0.3119	19959.42	3.6750	3.6749	-0.9346	6.34	0.35	-0.750			
0.3147	20141.06	3.6720	3.6720	-0.9395	6.34	0.35	-0.750			
0.3175	20321.95	3.6690	3.6691	-0.9459	6.35	0.36	-0.750			
0.3204	20504.08	3.6660	3.6660	-0.9527	6.35	0.36	-0.750			
0.3233	20688.17	3.6630	3.6630	-0.9531	6.36	0.37	-0.750			
0.3261	20871.98	3.6600	3.6599	-0.9513	6.36	0.37	-0.750			
0.3290	21053.67	3.6570	3.6570	-0.9584	6.37	0.38	-0.750			
0.3318	21236.42	3.6540	3.6541	-0.9695	6.37	0.38	-0.750			
0.3348	21426.27	3.6510	3.6509	-0.9875	6.38	0.39	-0.750			
0.3378	21617.04	3.6480	3.6480	-0.9965	6.38	0.39	-0.750			
0.3408	21810.11	3.6450	3.6449	-1.0094	6.39	0.40	-0.750			
0.3439	22007.47	3.6420	3.6422	-1.0216	6.39	0.40	-0.750			
0.3470	22205.50	3.6390	3.6389	-1.0382	6.40	0.41	-0.750			
0.3501	22404.32	3.6360	3.6359	-1.0381	6.40	0.41	-0.750			
0.3532	22601.94	3.6330	3.6330	-1.0400	6.41	0.42	-0.750			
0.3563	22806.12	3.6300	3.6302	-1.0677	6.41	0.42	-0.750			
0.3596	23011.69	3.6270	3.6270	-1.0710	6.42	0.43	-0.750			
0.3628	23218.27	3.6240	3.6239	-1.0729	6.42	0.43	-0.750			
0.3660	23423.61	3.6210	3.6209	-1.0766	6.43	0.44	-0.750			
0.3692	23630.33	3.6180	3.6182	-1.0950	6.43	0.44	-0.750			
0.3725	23842.95	3.6150	3.6150	-1.1061	6.43	0.44	-0.750			
0.3759	24055.96	3.6120	3.6117	-1.1124	6.43	0.44	-0.750			
0.3792	24269.90	3.6090	3.6090	-1.1135	6.43	0.44	-0.750			
0.3826	24487.96	3.6060	3.6060	-1.1346	6.43	0.44	-0.750			
0.3861	24708.38	3.6030	3.6030	-1.1444	6.43	0.44	-0.750			
0.3895	24926.68	3.6000	3.5999	-1.1469	6.44	0.45	-0.750			
0.3929	25142.78	3.5970	3.5972	-1.1444	6.44	0.45	-0.750			
0.3964	25367.27	3.5940	3.5939	-1.1812	6.45	0.46	-0.750			
0.4000	25598.89	3.5910	3.5910	-1.1845	6.46	0.47	-0.750			
0.4036	25827.99	3.5880	3.5878	-1.1924	6.46	0.47	-0.750			
0.4072	26060.08	3.5850	3.5850	-1.2160	6.47	0.48	-0.750	0.475	1.055	
0.4108	26294.10	3.5820	3.5817	-1.2200	6.47	0.48	-0.750			
0.4145	26526.18	3.5790	3.5789	-1.2201	6.47	0.48	-0.750			
0.4181	26757.59	3.5760	3.5764	-1.2268	6.47	0.48	-0.750			
0.4219	26999.94	3.5730	3.5729	-1.2551	6.48	0.49	-0.750			
0.4257	27242.05	3.5700	3.5699	-1.2724	6.48	0.49	-0.750			
0.4294	27481.26	3.5670	3.5670	-1.2906	6.49	0.50	-0.750			
0.4334	27735.11	3.5640	3.5639	-1.3127	6.49	0.50	-0.750			
0.4374	27990.90	3.5610	3.5609	-1.3217	6.50	0.51	-0.750			
0.4413	28244.31	3.5580	3.5580	-1.3394	6.51	0.52	-0.750			
0.4454	28504.72	3.5550	3.5550	-1.3373	6.51	0.52	-0.750			
0.4494	28764.56	3.5520	3.5519	-1.3446	6.52	0.53	-0.750			
0.4534	29018.62	3.5490	3.5488	-1.3628	6.52	0.53	-0.750			
0.4575	29278.86	3.5460	3.5461	-1.3677	6.52	0.53	-0.750			
0.4617	29546.60	3.5430	3.5428	-1.3862	6.52	0.53	-0.750			
0.4659	29814.65	3.5400	3.5400	-1.4017	6.53	0.54	-0.750			
0.4700	30081.63	3.5370	3.5371	-1.4026	6.53	0.54	-0.750			
0.4744	30358.52	3.5340	3.5340	-1.4269	6.54	0.55	-0.750			
0.4786	30633.21	3.5310	3.5309	-1.4343	6.55	0.56	-0.750			
0.4829	30908.36	3.5280	3.5281	-1.4338	6.55	0.56	-0.750			
0.4873	31184.48	3.5250	3.5250	-1.4587	6.56	0.57	-0.750			
0.4917	31467.06	3.5220	3.5219	-1.4688	6.57	0.58	-0.750			
0.4961	31752.66	3.5190	3.5188	-1.4569	6.57	0.58	-0.750			
0.5005	32033.07	3.5160	3.5157	-1.4691	6.58	0.59	-0.750			
0.5050	32317.26	3.5130	3.5134	-1.4714	6.59	0.60	-0.750			
0.5094	32599.13	3.5100	3.5097	-1.4740	6.60	0.61	-0.750			
0.5139	32886.41	3.5070	3.5071	-1.4884	6.62	0.63	-0.750			
0.5182	33167.93	3.5040	3.5042	-1.4959	6.63	0.64	-0.750			
0.5228	33457.39	3.5010	3.5012	-1.4949	6.64	0.65	-0.750			
0.5274	33752.39	3.4980	3.4979	-1.5008	6.64	0.65	-0.750			
0.5319	34038.89	3.4950	3.4949	-1.4945	6.65	0.66	-0.750			
0.5363	34324.44	3.4920	3.4919	-1.4996	6.66	0.67	-0.750			
0.5408	34609.27	3.4890	3.4889	-1.4935	6.67	0.68	-0.750			
0.5453	34898.17	3.4860	3.4859	-1.4910	6.68	0.69	-0.750			
0.5497	35182.61	3.4830	3.4830	-1.4977	6.69	0.70	-0.750			
0.5543	35477.02	3.4800	3.4799	-1.5006	6.71	0.72	-0.750			
0.5588	35765.22	3.4770	3.4769	-1.4900	6.72	0.73	-0.750			
0.5633	36052.54	3.4740	3.4738	-1.5064	6.73	0.74	-0.750			
0.5678	36338.93	3.4710	3.4713	-1.4888	6.74	0.75	-0.750			
0.5722	36623.17	3.4680	3.4680	-1.5439	6.75	0.76	-0.750			
0.5769	36923.36	3.4650	3.4648	-1.5666	6.76	0.77	-0.750			
0.5817	37231.41	3.4620	3.4616	-1.5613	6.78	0.79	-0.750			
0.5865	37536.10	3.4590	3.4597	-1.5557	6.80	0.81	-0.750			
0.5914	37847.92	3.4560	3.4560	-1.5458	6.82	0.83	-0.750			
0.5958	38133.62	3.4530	3.4530	-1.4848	6.84	0.85	-0.750			
0.6002	38412.59	3.4500	3.4499	-1.4427	6.85	0.86	-0.750			
0.6044	38679.38	3.4470	3.4468	-1.4133	6.87	0.88	-0.750			
0.6086	38949.21	3.4440	3.4439	-1.3925	6.88	0.89	-0.750			
0.6128	39216.37	3.4410	3.4410	-1.3751	6.90	0.91	-0.750			
0.6169	39478.40	3.4380	3.4380	-1.3567	6.92	0.93	-0.750			
0.6209	39735.89	3.4350	3.4349	-1.3306	6.94	0.95	-0.750			
0.6249	39991.96	3.4320	3.4319	-1.3096	6.95	0.96	-0.750			
0.6288	40240.01	3.4290	3.4290	-1.2902	6.96	0.97	-0.750			
0.6325	40482.55	3.4260	3.4260	-1.2616	6.98	0.99	-0.750			
0.6364	40728.34	3.4230	3.4230	-1.2457	7.00	1.01	-0.750			
0.6401	40965.22	3.4200	3.4200	-1.2159	7.02	1.03	-0.750			
0.6436	41193.35	3.4170	3.4172	-1.1999	7.03	1.04	-0.750			
0.6473	41424.44	3.4140	3.4139	-1.1742	7.05	1.06	-0.750			
0.6507	41647.35	3.4110	3.4109	-1.1528	7.07	1.08	-0.750			
0.6542	41866.25	3.4080	3.4079	-1.1245	7.08	1.09	-0.750			
0.6575	42080.86	3.4050	3.4049	-1.1032	7.10	1.11	-0.750			
0.6608	42290.34	3.4020	3.4020	-1.0764	7.11	1.12	-0.750			
0.6640	42494.10	3.3990	3.3990	-1.0497	7.13	1.14	-0.750			
0.6670	42690.91	3.3960	3.3959	-1.0163	7.14	1.15	-0.750			
0.6701	42887.11	3.3930	3.3930	-0.9956	7.16	1.17	-0.750			
0.6730	43074.28	3.3900	3.3900	-0.9641	7.18	1.19	-0.750			
0.6759	43256.93	3.3870	3.3870	-0.9393	7.20	1.21	-0.750			
0.6787	43434.13	3.3840	3.3840	-0.9114	7.22	1.23	-0.750			
0.6814	43606.43	3.3810	3.3810	-0.8850	7.23	1.24	-0.750			
0.6840	43773.31	3.3780	3.3780	-0.8604	7.25	1.26	-0.750			
0.6865	43936.38	3.3750	3.3750	-0.8412	7.26	1.27	-0.750			
0.6890	44096.33	3.3720	3.3719	-0.8159	7.27	1.28	-0.750			
0.6914	44251.02	3.3690	3.3690	-0.7960	7.28	1.29	-0.750			
0.6938	44401.17	3.3660	3.3661	-0.7718	7.29	1.30	-0.750			
0.6961	44547.45	3.3630	3.3630	-0.7515	7.31	1.32	-0.750			
0.6983	44689.26	3.3600	3.3600	-0.7332	7.32	1.33	-0.750			
0.7004	44826.64	3.3570	3.3569	-0.7123	7.34	1.35	-0.750			
0.7025	44962.05	3.3540	3.3540	-0.6957	7.35	1.36	-0.750			
0.7046	45094.24	3.3510	3.3510	-0.6782	7.36	1.37	-0.750			
0.7066	45222.59	3.3480	3.3481	-0.6603	7.38	1.39	-0.750			
0.7086	45348.31	3.3450	3.3450	-0.6438	7.39	1.40	-0.750			
0.7105	45468.86	3.3420	3.3419	-0.6260	7.41	1.42	-0.750			
0.7123	45586.92	3.3390	3.3391	-0.6108	7.42	1.43	-0.750			
0.7141	45703.08	3.3360	3.3360	-0.5977	7.44	1.45	-0.750			
0.7159	45817.12	3.3330	3.3330	-0.5828	7.45	1.46	-0.750			
0.7176	45927.85	3.3300	3.3300	-0.5671	7.47	1.48	-0.750			
0.7193	46035.35	3.3270	3.3270	-0.5501	7.48	1.49	-0.750			
0.7209	46138.94	3.3240	3.3240	-0.5223	7.49	1.50	-0.750			
