Ah_balance (normalized)	Ah_balance (mAh)	Voltage - fit (V)	Voltage -  interpolate (V)	dQ/dV (1/V)	Temperature (°C)	Temperature - diff (°C)	Current (C)	R_DC 0ms (mOhm)	R_DC 50ms (mOhm)	R_DC 50 ms PEC (mOhm)
0.1602	10253.03	4.0750	4.0750	0.8221	7.46	1.49	0.750			
0.1627	10409.98	4.0720	4.0720	0.8144	7.46	1.49	0.750			
0.1651	10565.38	4.0690	4.0691	0.8121	7.45	1.48	0.750			
0.1675	10720.56	4.0660	4.0660	0.8145	7.45	1.48	0.750			
0.1700	10877.36	4.0630	4.0630	0.8180	7.44	1.47	0.750			
0.1724	11034.75	4.0600	4.0600	0.8200	7.44	1.47	0.750			
0.1749	11193.30	4.0570	4.0569	0.8219	7.44	1.47	0.750			
0.1774	11351.38	4.0540	4.0541	0.8211	7.44	1.47	0.750			
0.1798	11508.92	4.0510	4.0510	0.8230	7.43	1.46	0.750			
0.1823	11665.99	4.0480	4.0480	0.8240	7.43	1.46	0.750			
0.1848	11824.07	4.0450	4.0449	0.8290	7.43	1.46	0.750			
0.1872	11983.13	4.0420	4.0420	0.8321	7.43	1.46	0.750			
0.1898	12144.15	4.0390	4.0390	0.8324	7.42	1.45	0.750			
0.1923	12305.16	4.0360	4.0361	0.8385	7.42	1.45	0.750			
0.1948	12465.66	4.0330	4.0330	0.8382	7.41	1.44	0.750			
0.1973	12626.19	4.0300	4.0299	0.8423	7.41	1.44	0.750			
0.1998	12787.39	4.0270	4.0271	0.8451	7.41	1.44	0.750			
0.2023	12950.34	4.0240	4.0240	0.8479	7.40	1.43	0.750			
0.2049	13114.73	4.0210	4.0210	0.8545	7.40	1.43	0.750			
0.2075	13278.99	4.0180	4.0180	0.8554	7.39	1.42	0.750			
0.2101	13443.41	4.0150	4.0148	0.8571	7.39	1.42	0.750			
0.2126	13608.99	4.0120	4.0120	0.8584	7.38	1.41	0.750			
0.2152	13773.09	4.0090	4.0090	0.8614	7.38	1.41	0.750			
0.2178	13939.20	4.0060	4.0060	0.8643	7.37	1.40	0.750			
0.2204	14105.31	4.0030	4.0030	0.8686	7.37	1.40	0.750			
0.2230	14271.49	4.0000	4.0000	0.8709	7.36	1.39	0.750			
0.2256	14439.60	3.9970	3.9971	0.8752	7.36	1.39	0.750			
0.2283	14608.43	3.9940	3.9939	0.8789	7.35	1.38	0.750			
0.2309	14777.75	3.9910	3.9910	0.8806	7.35	1.38	0.750			
0.2335	14945.51	3.9880	3.9880	0.8822	7.34	1.37	0.750			
0.2362	15116.07	3.9850	3.9850	0.8856	7.34	1.37	0.750			
0.2389	15286.55	3.9820	3.9820	0.8861	7.33	1.36	0.750			
0.2415	15456.72	3.9790	3.9790	0.8907	7.32	1.35	0.750			
0.2442	15627.67	3.9760	3.9761	0.8963	7.32	1.35	0.750			
0.2469	15800.25	3.9730	3.9730	0.9011	7.31	1.34	0.750			
0.2496	15974.37	3.9700	3.9700	0.9031	7.31	1.34	0.750			
0.2523	16147.47	3.9670	3.9670	0.9075	7.30	1.33	0.750			
0.2550	16322.83	3.9640	3.9641	0.9161	7.30	1.33	0.750			
0.2578	16498.58	3.9610	3.9610	0.9222	7.29	1.32	0.750			
0.2606	16675.33	3.9580	3.9579	0.9256	7.29	1.32	0.750			
0.2633	16854.38	3.9550	3.9549	0.9293	7.28	1.31	0.750			
0.2662	17033.80	3.9520	3.9521	0.9335	7.28	1.31	0.750			
0.2690	17213.04	3.9490	3.9490	0.9384	7.27	1.30	0.750			
0.2718	17392.58	3.9460	3.9460	0.9418	7.26	1.29	0.750			
0.2746	17573.62	3.9430	3.9430	0.9464	7.26	1.29	0.750			
0.2774	17755.92	3.9400	3.9400	0.9535	7.25	1.28	0.750			
0.2803	17940.27	3.9370	3.9370	0.9626	7.25	1.28	0.750			
0.2832	18126.71	3.9340	3.9341	0.9714	7.24	1.27	0.750			
0.2862	18313.61	3.9310	3.9309	0.9752	7.24	1.27	0.750			
0.2891	18501.64	3.9280	3.9280	0.9806	7.23	1.26	0.750			
0.2920	18689.29	3.9250	3.9250	0.9880	7.22	1.25	0.750			
0.2950	18879.18	3.9220	3.9220	0.9989	7.22	1.25	0.750			
0.2980	19072.33	3.9190	3.9190	1.0045	7.21	1.24	0.750			
0.3010	19265.81	3.9160	3.9160	1.0143	7.20	1.23	0.750			
0.3041	19461.77	3.9130	3.9130	1.0242	7.19	1.22	0.750			
0.3072	19659.61	3.9100	3.9101	1.0343	7.18	1.21	0.750			
0.3103	19859.03	3.9070	3.9069	1.0450	7.17	1.20	0.750			
0.3134	20059.92	3.9040	3.9040	1.0543	7.16	1.19	0.750			
0.3166	20262.29	3.9010	3.9010	1.0661	7.15	1.18	0.750			
0.3198	20469.24	3.8980	3.8980	1.0821	7.15	1.18	0.750			
0.3231	20679.80	3.8950	3.8950	1.0874	7.14	1.17	0.750			
0.3264	20889.34	3.8920	3.8920	1.0992	7.13	1.16	0.750			
0.3297	21100.25	3.8890	3.8891	1.1099	7.12	1.15	0.750			
0.3330	21313.92	3.8860	3.8860	1.1210	7.12	1.15	0.750			
0.3364	21529.28	3.8830	3.8830	1.1357	7.11	1.14	0.750			
0.3398	21748.07	3.8800	3.8800	1.1524	7.10	1.13	0.750			
0.3433	21971.40	3.8770	3.8770	1.1709	7.08	1.11	0.750			
0.3469	22199.69	3.8740	3.8739	1.1873	7.07	1.10	0.750			
0.3504	22427.97	3.8710	3.8710	1.2067	7.06	1.09	0.750			
0.3541	22661.70	3.8680	3.8681	1.2260	7.05	1.08	0.750			
0.3578	22901.06	3.8650	3.8649	1.2420	7.05	1.08	0.750			
0.3616	23139.36	3.8620	3.8620	1.2611	7.03	1.06	0.750			
0.3653	23382.24	3.8590	3.8590	1.2804	7.02	1.05	0.750			
0.3692	23629.94	3.8560	3.8561	1.3026	7.00	1.03	0.750			
0.3732	23885.06	3.8530	3.8528	1.3219	6.99	1.02	0.750			
0.3772	24140.83	3.8500	3.8500	1.3307	6.98	1.01	0.750			
0.3812	24398.04	3.8470	3.8471	1.3472	6.98	1.01	0.750			
0.3852	24654.41	3.8440	3.8441	1.3724	6.97	1.00	0.750			
0.3893	24916.89	3.8410	3.8409	1.3979	6.96	0.99	0.750			
0.3935	25186.75	3.8380	3.8378	1.4247	6.94	0.97	0.750	0.450	1.035	
0.3979	25463.24	3.8350	3.8350	1.4646	6.93	0.96	0.750			
0.4023	25749.96	3.8320	3.8321	1.5008	6.91	0.94	0.750			
0.4070	26048.52	3.8290	3.8290	1.5415	6.89	0.92	0.750			
0.4116	26342.73	3.8260	3.8261	1.5815	6.87	0.90	0.750			
0.4164	26647.88	3.8230	3.8229	1.6131	6.85	0.88	0.750			
0.4214	26967.49	3.8200	3.8200	1.6509	6.83	0.86	0.750			
0.4264	27288.06	3.8170	3.8172	1.6821	6.82	0.85	0.750			
0.4314	27612.04	3.8140	3.8140	1.7255	6.80	0.83	0.750			
0.4366	27942.88	3.8110	3.8110	1.7704	6.78	0.81	0.750			
0.4420	28285.55	3.8080	3.8080	1.8141	6.75	0.78	0.750			
0.4475	28641.88	3.8050	3.8050	1.8679	6.72	0.75	0.750			
0.4533	29012.75	3.8020	3.8021	1.9237	6.71	0.74	0.750			
0.4591	29381.52	3.7990	3.7990	1.9381	6.69	0.72	0.750			
0.4649	29754.44	3.7960	3.7960	1.9803	6.67	0.70	0.750			
0.4709	30140.36	3.7930	3.7930	2.0160	6.64	0.67	0.750			
0.4771	30531.27	3.7900	3.7900	2.0504	6.62	0.65	0.750			
0.4833	30928.76	3.7870	3.7870	2.0787	6.60	0.63	0.750			
0.4895	31329.73	3.7840	3.7840	2.1073	6.57	0.60	0.750			
0.4959	31735.84	3.7810	3.7810	2.1801	6.55	0.58	0.750			
0.5026	32164.29	3.7780	3.7779	2.2240	6.52	0.55	0.750			
0.5094	32599.00	3.7750	3.7751	2.2625	6.49	0.52	0.750			
0.5161	33033.41	3.7720	3.7720	2.2589	6.46	0.49	0.750			
0.5229	33463.87	3.7690	3.7690	2.2856	6.43	0.46	0.750			
0.5299	33910.97	3.7660	3.7659	2.3301	6.41	0.44	0.750			
0.5368	34358.10	3.7630	3.7631	2.3699	6.38	0.41	0.750			
0.5441	34820.11	3.7600	3.7600	2.4100	6.35	0.38	0.750			
0.5513	35280.38	3.7570	3.7569	2.4625	6.32	0.35	0.750			
0.5587	35759.51	3.7540	3.7540	2.5248	6.29	0.32	0.750			
0.5665	36254.50	3.7510	3.7511	2.5827	6.26	0.29	0.750			
0.5742	36751.60	3.7480	3.7481	2.6430	6.22	0.25	0.750			
0.5823	37264.11	3.7450	3.7451	2.6984	6.20	0.23	0.750			
0.5906	37795.34	3.7420	3.7420	2.8405	6.17	0.20	0.750			
0.5995	38365.79	3.7390	3.7390	3.0030	6.13	0.16	0.750			
0.6086	38952.16	3.7360	3.7360	3.1166	6.10	0.13	0.750			
0.6181	39561.19	3.7330	3.7330	3.2065	6.06	0.09	0.750			
0.6280	40189.95	3.7300	3.7300	3.2800	6.04	0.07	0.750			
0.6379	40826.95	3.7270	3.7271	3.2488	6.01	0.04	0.750			
0.6477	41453.73	3.7240	3.7239	3.0733	5.99	0.02	0.750			
0.6565	42016.27	3.7210	3.7212	2.7545	5.98	0.01	0.750			
0.6642	42505.79	3.7180	3.7179	2.3924	5.97	-0.00	0.750			
0.6707	42926.90	3.7150	3.7150	2.0508	5.96	-0.01	0.750			
0.6763	43280.92	3.7120	3.7122	1.7720	5.96	-0.01	0.750			
0.6811	43591.43	3.7090	3.7090	1.5309	5.95	-0.02	0.750			
0.6852	43855.23	3.7060	3.7059	1.3201	5.95	-0.02	0.750			
0.6887	44078.52	3.7030	3.7030	1.1528	5.95	-0.02	0.750			
0.6918	44275.06	3.7000	3.6999	1.0269	5.95	-0.02	0.750			
0.6946	44454.55	3.6970	3.6969	0.9292	5.95	-0.02	0.750			
0.6972	44620.66	3.6940	3.6940	0.8581	5.95	-0.02	0.750			
0.6997	44778.16	3.6910	3.6910	0.7956	5.95	-0.02	0.750			
0.7020	44924.97	3.6880	3.6879	0.7379	5.96	-0.01	0.750			
0.7041	45061.66	3.6850	3.6851	0.6799	5.96	-0.01	0.750			
0.7060	45186.51	3.6820	3.6820	0.6229	5.96	-0.01	0.750			
0.7078	45300.43	3.6790	3.6790	0.5682	5.97	-0.00	0.750			
0.7094	45403.37	3.6760	3.6760	0.5111	5.97	-0.00	0.750			
0.7109	45495.21	3.6730	3.6730	0.4583	5.97	0.00	0.750			
0.7122	45578.36	3.6700	3.6700	0.4104	5.97	0.00	0.750			
0.7133	45651.34	3.6670	3.6671	0.3644	5.98	0.01	0.750			
0.7143	45716.59	3.6640	3.6639	0.3199	5.98	0.01	0.750			
0.7152	45772.53	3.6610	3.6610	0.2779	5.98	0.01	0.750			
0.7160	45822.29	3.6580	3.6579	0.2385	5.98	0.01	0.750			
0.7166	45864.12	3.6550	3.6550	0.1994	5.98	0.01	0.750			
0.7172	45899.05	3.6520	3.6521	0.1609	5.98	0.01	0.750			
0.7176	45926.64	3.6490	3.6492	0.1217	5.98	0.01	0.750			
0.7179	45946.68	3.6460	3.6465	0.0793	5.98	0.01	0.750			
0.7181	45957.84	3.6430	3.6439	0.0362	5.98	0.01	0.750			
