Ah_balance (normalized)	Ah_balance (mAh)	Voltage - fit (V)	Voltage -  interpolate (V)	dQ/dV (1/V)	Temperature (°C)	Temperature - diff (°C)	Current (C)	R_DC 0ms (mOhm)	R_DC 50ms (mOhm)	R_DC 50 ms PEC (mOhm)
0.0957	6127.84	4.0040	4.0035	-0.0547	5.99	0.02	-0.750			
0.0960	6142.56	4.0010	4.0005	-0.0900	5.99	0.02	-0.750			
0.0963	6162.90	3.9980	3.9978	-0.1181	5.99	0.02	-0.750			
0.0967	6188.17	3.9950	3.9950	-0.1453	5.99	0.02	-0.750			
0.0972	6218.77	3.9920	3.9921	-0.1721	5.99	0.02	-0.750			
0.0977	6254.59	3.9890	3.9890	-0.1972	5.99	0.02	-0.750			
0.0984	6295.77	3.9860	3.9859	-0.2223	5.99	0.02	-0.750			
0.0991	6340.86	3.9830	3.9831	-0.2458	5.98	0.01	-0.750			
0.0998	6390.32	3.9800	3.9800	-0.2691	5.98	0.01	-0.750			
0.1007	6444.78	3.9770	3.9770	-0.2902	5.98	0.01	-0.750			
0.1016	6501.93	3.9740	3.9741	-0.3156	5.98	0.01	-0.750			
0.1026	6564.50	3.9710	3.9710	-0.3392	5.98	0.01	-0.750			
0.1036	6631.78	3.9680	3.9680	-0.3642	5.98	0.01	-0.750			
0.1048	6704.16	3.9650	3.9650	-0.3881	5.98	0.01	-0.750			
0.1060	6781.35	3.9620	3.9621	-0.4126	5.97	0.00	-0.750			
0.1072	6863.52	3.9590	3.9589	-0.4347	5.97	0.00	-0.750			
0.1086	6950.10	3.9560	3.9560	-0.4574	5.97	-0.00	-0.750			
0.1100	7038.64	3.9530	3.9530	-0.4761	5.97	-0.00	-0.750			
0.1114	7131.95	3.9500	3.9500	-0.4982	5.96	-0.01	-0.750			
0.1130	7228.98	3.9470	3.9470	-0.5181	5.96	-0.01	-0.750			
0.1145	7330.32	3.9440	3.9439	-0.5443	5.96	-0.01	-0.750			
0.1162	7437.77	3.9410	3.9411	-0.5642	5.96	-0.01	-0.750			
0.1180	7549.46	3.9380	3.9380	-0.5818	5.95	-0.02	-0.750			
0.1198	7664.93	3.9350	3.9349	-0.5968	5.95	-0.02	-0.750			
0.1216	7781.08	3.9320	3.9319	-0.6078	5.95	-0.02	-0.750			
0.1234	7898.29	3.9290	3.9290	-0.6176	5.95	-0.02	-0.750			
0.1253	8017.27	3.9260	3.9260	-0.6272	5.95	-0.02	-0.750			
0.1271	8137.46	3.9230	3.9230	-0.6369	5.95	-0.02	-0.750			
0.1291	8262.25	3.9200	3.9201	-0.6490	5.95	-0.02	-0.750			
0.1311	8388.17	3.9170	3.9169	-0.6588	5.95	-0.02	-0.750			
0.1331	8515.45	3.9140	3.9141	-0.6661	5.95	-0.02	-0.750			
0.1351	8644.44	3.9110	3.9110	-0.6717	5.95	-0.02	-0.750			
0.1371	8773.79	3.9080	3.9079	-0.6788	5.96	-0.01	-0.750			
0.1391	8905.19	3.9050	3.9050	-0.6857	5.96	-0.01	-0.750			
0.1412	9038.37	3.9020	3.9020	-0.6924	5.96	-0.01	-0.750			
0.1433	9172.36	3.8990	3.8990	-0.6964	5.97	-0.00	-0.750			
0.1454	9306.24	3.8960	3.8960	-0.7009	5.97	-0.00	-0.750			
0.1475	9440.86	3.8930	3.8930	-0.7061	5.97	0.00	-0.750			
0.1496	9576.81	3.8900	3.8900	-0.7104	5.97	0.00	-0.750			
0.1518	9712.55	3.8870	3.8870	-0.7191	5.97	0.00	-0.750			
0.1540	9854.69	3.8840	3.8839	-0.7210	5.98	0.01	-0.750			
0.1561	9992.94	3.8810	3.8809	-0.7196	5.98	0.01	-0.750			
0.1583	10131.24	3.8780	3.8782	-0.7232	5.98	0.01	-0.750			
0.1605	10269.47	3.8750	3.8750	-0.7210	5.99	0.02	-0.750			
0.1626	10406.51	3.8720	3.8719	-0.7281	5.99	0.02	-0.750			
0.1648	10546.05	3.8690	3.8690	-0.7267	6.00	0.03	-0.750			
0.1670	10687.95	3.8660	3.8660	-0.7290	6.00	0.03	-0.750			
0.1692	10828.55	3.8630	3.8630	-0.7320	6.01	0.04	-0.750			
0.1714	10968.23	3.8600	3.8601	-0.7318	6.01	0.04	-0.750			
0.1736	11108.58	3.8570	3.8569	-0.7327	6.01	0.04	-0.750			
0.1758	11249.64	3.8540	3.8539	-0.7325	6.02	0.05	-0.750			
0.1780	11390.18	3.8510	3.8510	-0.7274	6.02	0.05	-0.750			
0.1802	11531.47	3.8480	3.8481	-0.7326	6.03	0.06	-0.750			
0.1824	11673.06	3.8450	3.8450	-0.7322	6.03	0.06	-0.750			
0.1846	11811.82	3.8420	3.8420	-0.7265	6.03	0.06	-0.750			
0.1867	11948.34	3.8390	3.8390	-0.7299	6.04	0.07	-0.750			
0.1889	12089.20	3.8360	3.8360	-0.7376	6.04	0.07	-0.750			
0.1911	12233.51	3.8330	3.8329	-0.7427	6.04	0.07	-0.750			
0.1934	12378.43	3.8300	3.8301	-0.7485	6.05	0.08	-0.750			
0.1957	12521.76	3.8270	3.8271	-0.7475	6.05	0.08	-0.750			
0.1979	12666.34	3.8240	3.8240	-0.7506	6.06	0.09	-0.750			
0.2001	12809.01	3.8210	3.8209	-0.7524	6.06	0.09	-0.750			
0.2024	12953.06	3.8180	3.8180	-0.7497	6.07	0.10	-0.750			
0.2047	13097.65	3.8150	3.8149	-0.7529	6.08	0.11	-0.750			
0.2069	13242.57	3.8120	3.8119	-0.7516	6.09	0.12	-0.750			
0.2092	13387.20	3.8090	3.8090	-0.7525	6.09	0.12	-0.750			
0.2114	13531.47	3.8060	3.8060	-0.7502	6.10	0.13	-0.750			
0.2137	13674.68	3.8030	3.8030	-0.7531	6.10	0.13	-0.750			
0.2159	13819.86	3.8000	3.8000	-0.7495	6.10	0.13	-0.750			
0.2182	13965.73	3.7970	3.7970	-0.7555	6.11	0.14	-0.750			
0.2205	14110.35	3.7940	3.7942	-0.7556	6.11	0.14	-0.750			
0.2227	14255.91	3.7910	3.7910	-0.7567	6.11	0.14	-0.750			
0.2250	14399.54	3.7880	3.7879	-0.7604	6.12	0.15	-0.750			
0.2273	14546.44	3.7850	3.7850	-0.7603	6.12	0.15	-0.750			
0.2296	14693.09	3.7820	3.7820	-0.7606	6.12	0.15	-0.750			
0.2319	14839.64	3.7790	3.7790	-0.7623	6.13	0.16	-0.750			
0.2341	14985.34	3.7760	3.7760	-0.7612	6.13	0.16	-0.750			
0.2364	15130.06	3.7730	3.7730	-0.7676	6.14	0.17	-0.750			
0.2387	15277.74	3.7700	3.7700	-0.7707	6.15	0.18	-0.750			
0.2410	15426.05	3.7670	3.7670	-0.7672	6.16	0.19	-0.750			
0.2434	15575.04	3.7640	3.7640	-0.7734	6.16	0.19	-0.750			
0.2457	15723.68	3.7610	3.7614	-0.7791	6.17	0.20	-0.750			
0.2480	15872.99	3.7580	3.7579	-0.7810	6.17	0.20	-0.750			
0.2504	16022.46	3.7550	3.7549	-0.7839	6.18	0.21	-0.750			
0.2527	16173.11	3.7520	3.7520	-0.7871	6.18	0.21	-0.750			
0.2551	16327.22	3.7490	3.7490	-0.7892	6.19	0.22	-0.750			
0.2575	16479.03	3.7460	3.7459	-0.7904	6.19	0.22	-0.750			
0.2598	16628.63	3.7430	3.7430	-0.7898	6.20	0.23	-0.750			
0.2622	16778.97	3.7400	3.7400	-0.7974	6.20	0.23	-0.750			
0.2646	16932.14	3.7370	3.7369	-0.7990	6.21	0.24	-0.750			
0.2670	17085.89	3.7340	3.7340	-0.8055	6.22	0.25	-0.750			
0.2694	17242.42	3.7310	3.7310	-0.8127	6.23	0.26	-0.750			
0.2719	17399.83	3.7280	3.7278	-0.8185	6.23	0.26	-0.750			
0.2743	17555.01	3.7250	3.7251	-0.8268	6.24	0.27	-0.750			
0.2768	17715.65	3.7220	3.7219	-0.8316	6.24	0.27	-0.750			
0.2793	17876.21	3.7190	3.7190	-0.8339	6.24	0.27	-0.750			
0.2818	18038.38	3.7160	3.7159	-0.8418	6.25	0.28	-0.750			
0.2844	18199.71	3.7130	3.7130	-0.8451	6.25	0.28	-0.750			
0.2869	18362.81	3.7100	3.7099	-0.8535	6.26	0.29	-0.750			
0.2895	18525.94	3.7070	3.7069	-0.8582	6.26	0.29	-0.750			
0.2920	18690.08	3.7040	3.7040	-0.8622	6.26	0.29	-0.750			
0.2947	18858.21	3.7010	3.7010	-0.8779	6.27	0.30	-0.750			
0.2973	19028.46	3.6980	3.6978	-0.8867	6.27	0.30	-0.750			
0.3000	19198.88	3.6950	3.6949	-0.8920	6.28	0.31	-0.750			
0.3027	19371.28	3.6920	3.6920	-0.8928	6.28	0.31	-0.750			
0.3053	19541.24	3.6890	3.6891	-0.8983	6.29	0.32	-0.750			
0.3081	19716.71	3.6860	3.6861	-0.9082	6.29	0.32	-0.750			
0.3108	19889.90	3.6830	3.6830	-0.9217	6.29	0.32	-0.750			
0.3135	20066.71	3.6800	3.6799	-0.9266	6.30	0.33	-0.750			
0.3163	20246.37	3.6770	3.6770	-0.9412	6.30	0.33	-0.750			
0.3192	20430.06	3.6740	3.6739	-0.9520	6.31	0.34	-0.750			
0.3221	20614.88	3.6710	3.6710	-0.9613	6.31	0.34	-0.750			
0.3250	20800.73	3.6680	3.6679	-0.9712	6.31	0.34	-0.750			
0.3279	20987.42	3.6650	3.6650	-0.9740	6.31	0.34	-0.750			
0.3308	21173.40	3.6620	3.6619	-0.9749	6.31	0.34	-0.750			
0.3338	21362.76	3.6590	3.6591	-0.9870	6.31	0.34	-0.750			
0.3368	21552.97	3.6560	3.6560	-1.0000	6.32	0.35	-0.750			
0.3398	21746.99	3.6530	3.6529	-1.0081	6.32	0.35	-0.750			
0.3428	21941.55	3.6500	3.6498	-1.0127	6.33	0.36	-0.750			
0.3459	22137.25	3.6470	3.6474	-1.0284	6.33	0.36	-0.750			
0.3490	22335.49	3.6440	3.6440	-1.0371	6.33	0.36	-0.750			
0.3521	22535.34	3.6410	3.6409	-1.0431	6.33	0.36	-0.750			
0.3552	22734.76	3.6380	3.6380	-1.0513	6.33	0.36	-0.750			
0.3584	22937.78	3.6350	3.6352	-1.0698	6.33	0.36	-0.750			
0.3616	23144.01	3.6320	3.6320	-1.0738	6.34	0.37	-0.750			
0.3649	23352.14	3.6290	3.6289	-1.0824	6.34	0.37	-0.750			
0.3681	23559.01	3.6260	3.6260	-1.0906	6.35	0.38	-0.750			
0.3714	23767.82	3.6230	3.6231	-1.1090	6.35	0.38	-0.750			
0.3747	23983.26	3.6200	3.6199	-1.1239	6.35	0.38	-0.750			
0.3781	24201.16	3.6170	3.6170	-1.1331	6.35	0.38	-0.750			
0.3816	24421.11	3.6140	3.6139	-1.1417	6.35	0.38	-0.750			
0.3851	24644.55	3.6110	3.6110	-1.1553	6.35	0.38	-0.750			
0.3885	24864.84	3.6080	3.6079	-1.1638	6.36	0.39	-0.750			
0.3920	25086.45	3.6050	3.6051	-1.1688	6.36	0.39	-0.750			
0.3955	25309.27	3.6020	3.6021	-1.1746	6.37	0.40	-0.750			
0.3990	25538.90	3.5990	3.5990	-1.2019	6.37	0.40	-0.750			
0.4027	25773.42	3.5960	3.5960	-1.2124	6.37	0.40	-0.750			
0.4064	26007.02	3.5930	3.5929	-1.2227	6.37	0.40	-0.750			
0.4101	26245.16	3.5900	3.5899	-1.2428	6.37	0.40	-0.750	0.461	1.080	
0.4138	26484.02	3.5870	3.5869	-1.2444	6.38	0.41	-0.750			
0.4176	26724.04	3.5840	3.5839	-1.2551	6.39	0.42	-0.750			
0.4213	26964.40	3.5810	3.5812	-1.2666	6.39	0.42	-0.750			
0.4252	27211.87	3.5780	3.5779	-1.2802	6.39	0.42	-0.750			
0.4290	27458.28	3.5750	3.5749	-1.2870	6.39	0.42	-0.750			
0.4329	27705.35	3.5720	3.5723	-1.3004	6.39	0.42	-0.750			
0.4368	27958.26	3.5690	3.5689	-1.3165	6.39	0.42	-0.750			
0.4408	28212.09	3.5660	3.5659	-1.3231	6.39	0.42	-0.750			
0.4447	28463.88	3.5630	3.5633	-1.3338	6.39	0.42	-0.750			
0.4488	28723.96	3.5600	3.5599	-1.3535	6.39	0.42	-0.750			
0.4529	28983.22	3.5570	3.5569	-1.3643	6.40	0.43	-0.750			
0.4569	29243.09	3.5540	3.5541	-1.3804	6.40	0.43	-0.750			
0.4611	29508.64	3.5510	3.5510	-1.4026	6.40	0.43	-0.750			
0.4654	29785.72	3.5480	3.5479	-1.4185	6.41	0.44	-0.750			
0.4697	30060.18	3.5450	3.5451	-1.4409	6.41	0.44	-0.750			
0.4740	30338.89	3.5420	3.5420	-1.4465	6.41	0.44	-0.750			
0.4785	30621.80	3.5390	3.5388	-1.4600	6.41	0.44	-0.750			
0.4828	30901.40	3.5360	3.5362	-1.4732	6.41	0.44	-0.750			
0.4872	31182.32	3.5330	3.5330	-1.4891	6.42	0.45	-0.750			
0.4918	31473.11	3.5300	3.5299	-1.5026	6.42	0.45	-0.750			
0.4963	31762.89	3.5270	3.5271	-1.5192	6.43	0.46	-0.750			
0.5009	32058.11	3.5240	3.5243	-1.5263	6.43	0.46	-0.750			
0.5055	32353.02	3.5210	3.5209	-1.5349	6.44	0.47	-0.750			
0.5101	32645.37	3.5180	3.5179	-1.5387	6.44	0.47	-0.750			
0.5147	32942.49	3.5150	3.5151	-1.5346	6.46	0.49	-0.750			
0.5194	33241.64	3.5120	3.5119	-1.5491	6.47	0.50	-0.750			
0.5240	33536.76	3.5090	3.5089	-1.5524	6.47	0.50	-0.750			
0.5287	33834.70	3.5060	3.5060	-1.5662	6.47	0.50	-0.750			
0.5334	34139.08	3.5030	3.5031	-1.5644	6.47	0.50	-0.750			
0.5381	34435.99	3.5000	3.5003	-1.5646	6.49	0.52	-0.750			
0.5428	34740.20	3.4970	3.4970	-1.5650	6.50	0.53	-0.750			
0.5475	35041.62	3.4940	3.4939	-1.5715	6.51	0.54	-0.750			
0.5522	35342.96	3.4910	3.4909	-1.5676	6.52	0.55	-0.750			
0.5569	35644.12	3.4880	3.4880	-1.5628	6.53	0.56	-0.750			
0.5616	35942.67	3.4850	3.4849	-1.5571	6.54	0.57	-0.750			
0.5663	36241.12	3.4820	3.4818	-1.5702	6.56	0.59	-0.750			
0.5709	36540.69	3.4790	3.4790	-1.5438	6.57	0.60	-0.750			
0.5755	36835.03	3.4760	3.4761	-1.5485	6.59	0.62	-0.750			
0.5802	37135.25	3.4730	3.4728	-1.5366	6.60	0.63	-0.750			
0.5849	37431.24	3.4700	3.4700	-1.5211	6.62	0.65	-0.750			
0.5894	37723.89	3.4670	3.4670	-1.5247	6.63	0.66	-0.750			
0.5940	38014.80	3.4640	3.4640	-1.5072	6.65	0.68	-0.750			
0.5985	38306.59	3.4610	3.4609	-1.5062	6.66	0.69	-0.750			
0.6030	38591.88	3.4580	3.4581	-1.4880	6.68	0.71	-0.750			
0.6074	38871.90	3.4550	3.4550	-1.4731	6.70	0.73	-0.750			
0.6118	39157.31	3.4520	3.4519	-1.4671	6.72	0.75	-0.750			
0.6162	39439.78	3.4490	3.4489	-1.4510	6.73	0.76	-0.750			
0.6205	39715.07	3.4460	3.4462	-1.4339	6.75	0.78	-0.750			
0.6249	39994.63	3.4430	3.4429	-1.4165	6.77	0.80	-0.750			
0.6291	40265.55	3.4400	3.4400	-1.3925	6.79	0.82	-0.750			
0.6333	40530.45	3.4370	3.4373	-1.3681	6.81	0.84	-0.750			
0.6374	40790.98	3.4340	3.4339	-1.3391	6.83	0.86	-0.750			
0.6413	41044.31	3.4310	3.4310	-1.3109	6.85	0.88	-0.750			
0.6452	41290.10	3.4280	3.4282	-1.2877	6.87	0.90	-0.750			
0.6490	41538.19	3.4250	3.4249	-1.2676	6.88	0.91	-0.750			
0.6528	41777.10	3.4220	3.4219	-1.2396	6.90	0.93	-0.750			
0.6564	42011.19	3.4190	3.4190	-1.2109	6.91	0.94	-0.750			
0.6600	42241.83	3.4160	3.4159	-1.1877	6.93	0.96	-0.750			
0.6636	42471.38	3.4130	3.4130	-1.1654	6.95	0.98	-0.750			
0.6671	42691.48	3.4100	3.4100	-1.1392	6.97	1.00	-0.750			
0.6704	42905.70	3.4070	3.4071	-1.1140	6.99	1.02	-0.750			
0.6737	43118.60	3.4040	3.4039	-1.0898	7.01	1.04	-0.750			
0.6770	43327.97	3.4010	3.4010	-1.0562	7.03	1.06	-0.750			
0.6801	43527.84	3.3980	3.3980	-1.0276	7.05	1.08	-0.750			
0.6832	43721.75	3.3950	3.3953	-1.0012	7.07	1.10	-0.750			
0.6861	43909.97	3.3920	3.3919	-0.9796	7.09	1.12	-0.750			
0.6890	44094.69	3.3890	3.3889	-0.9547	7.11	1.14	-0.750			
0.6918	44274.96	3.3860	3.3860	-0.9282	7.13	1.16	-0.750			
0.6946	44455.39	3.3830	3.3830	-0.9138	7.14	1.17	-0.750			
0.6973	44628.54	3.3800	3.3800	-0.8875	7.16	1.19	-0.750			
0.6999	44793.94	3.3770	3.3770	-0.8586	7.18	1.21	-0.750			
0.7024	44955.25	3.3740	3.3740	-0.8364	7.19	1.22	-0.750			
0.7049	45112.07	3.3710	3.3710	-0.8121	7.21	1.24	-0.750			
0.7073	45267.58	3.3680	3.3680	-0.7961	7.23	1.26	-0.750			
0.7097	45419.06	3.3650	3.3650	-0.7757	7.24	1.27	-0.750			
0.7120	45565.93	3.3620	3.3620	-0.7617	7.25	1.28	-0.750			
0.7142	45709.73	3.3590	3.3590	-0.7441	7.26	1.29	-0.750			
0.7164	45849.75	3.3560	3.3560	-0.7267	7.28	1.31	-0.750			
0.7186	45987.30	3.3530	3.3529	-0.7148	7.29	1.32	-0.750			
0.7207	46123.88	3.3500	3.3502	-0.7049	7.30	1.33	-0.750			
0.7228	46257.74	3.3470	3.3470	-0.6817	7.31	1.34	-0.750			
