Ah_balance (normalized)	Ah_balance (mAh)	Voltage - fit (V)	Voltage -  interpolate (V)	dQ/dV (1/V)	Temperature (°C)	Temperature - diff (°C)	Current (C)	R_DC 0ms (mOhm)	R_DC 50ms (mOhm)	R_DC 50 ms PEC (mOhm)
0.1775	11361.29	4.0810	4.0810	0.7478	7.70	1.71	0.750			
0.1798	11508.47	4.0780	4.0780	0.7580	7.69	1.70	0.750			
0.1821	11651.91	4.0750	4.0750	0.7570	7.68	1.69	0.750			
0.1843	11796.73	4.0720	4.0722	0.7642	7.68	1.69	0.750			
0.1866	11944.69	4.0690	4.0692	0.7662	7.67	1.68	0.750			
0.1889	12090.06	4.0660	4.0661	0.7720	7.66	1.67	0.750			
0.1913	12240.28	4.0630	4.0631	0.7732	7.65	1.66	0.750			
0.1936	12391.28	4.0600	4.0600	0.7763	7.65	1.66	0.750			
0.1959	12538.34	4.0570	4.0570	0.7788	7.64	1.65	0.750			
0.1983	12689.24	4.0540	4.0536	0.7853	7.63	1.64	0.750			
0.2006	12839.68	4.0510	4.0510	0.7853	7.62	1.63	0.750			
0.2030	12992.66	4.0480	4.0480	0.7901	7.61	1.62	0.750			
0.2054	13144.80	4.0450	4.0451	0.7875	7.60	1.61	0.750			
0.2078	13298.26	4.0420	4.0420	0.7902	7.59	1.60	0.750			
0.2101	13446.01	4.0390	4.0389	0.7939	7.58	1.59	0.750			
0.2125	13597.12	4.0360	4.0360	0.7961	7.57	1.58	0.750			
0.2149	13753.04	4.0330	4.0329	0.7932	7.56	1.57	0.750			
0.2173	13904.17	4.0300	4.0299	0.8045	7.55	1.56	0.750			
0.2197	14059.38	4.0270	4.0272	0.8130	7.55	1.56	0.750			
0.2221	14216.57	4.0240	4.0240	0.8173	7.54	1.55	0.750			
0.2246	14373.24	4.0210	4.0210	0.8224	7.53	1.54	0.750			
0.2270	14530.83	4.0180	4.0181	0.8318	7.52	1.53	0.750			
0.2296	14691.82	4.0150	4.0149	0.8294	7.52	1.53	0.750			
0.2320	14850.06	4.0120	4.0120	0.8397	7.52	1.53	0.750			
0.2346	15011.71	4.0090	4.0092	0.8290	7.51	1.52	0.750			
0.2371	15171.65	4.0060	4.0062	0.8445	7.51	1.52	0.750			
0.2396	15335.41	4.0030	4.0031	0.8502	7.50	1.51	0.750			
0.2422	15498.60	4.0000	4.0002	0.8541	7.49	1.50	0.750			
0.2448	15664.42	3.9970	3.9973	0.8590	7.47	1.48	0.750			
0.2473	15829.53	3.9940	3.9940	0.8569	7.46	1.47	0.750			
0.2499	15995.08	3.9910	3.9910	0.8577	7.46	1.47	0.750			
0.2525	16161.11	3.9880	3.9881	0.8537	7.45	1.46	0.750			
0.2550	16322.31	3.9850	3.9850	0.8570	7.44	1.45	0.750			
0.2576	16488.35	3.9820	3.9821	0.8667	7.43	1.44	0.750			
0.2602	16653.51	3.9790	3.9787	0.8744	7.42	1.43	0.750			
0.2629	16822.89	3.9760	3.9760	0.8817	7.41	1.42	0.750			
0.2655	16994.89	3.9730	3.9731	0.8837	7.40	1.41	0.750			
0.2682	17164.97	3.9700	3.9702	0.8897	7.39	1.40	0.750			
0.2709	17338.53	3.9670	3.9670	0.8926	7.38	1.39	0.750			
0.2735	17507.16	3.9640	3.9637	0.8910	7.37	1.38	0.750			
0.2762	17676.69	3.9610	3.9610	0.8936	7.36	1.37	0.750			
0.2789	17848.41	3.9580	3.9581	0.9000	7.35	1.36	0.750			
0.2816	18023.14	3.9550	3.9550	0.9153	7.34	1.35	0.750			
0.2844	18198.71	3.9520	3.9519	0.9166	7.34	1.35	0.750			
0.2871	18376.96	3.9490	3.9491	0.9221	7.33	1.34	0.750			
0.2900	18556.94	3.9460	3.9460	0.9208	7.32	1.33	0.750			
0.2927	18729.72	3.9430	3.9431	0.9275	7.31	1.32	0.750			
0.2954	18908.16	3.9400	3.9402	0.9306	7.30	1.31	0.750			
0.2982	19087.17	3.9370	3.9366	0.9342	7.29	1.30	0.750			
0.3011	19267.60	3.9340	3.9341	0.9301	7.28	1.29	0.750			
0.3039	19447.76	3.9310	3.9312	0.9428	7.27	1.28	0.750			
0.3067	19629.67	3.9280	3.9280	0.9574	7.26	1.27	0.750			
0.3095	19811.12	3.9250	3.9250	0.9585	7.25	1.26	0.750			
0.3124	19996.64	3.9220	3.9221	0.9661	7.23	1.24	0.750			
0.3154	20184.98	3.9190	3.9191	0.9833	7.22	1.23	0.750			
0.3184	20374.93	3.9160	3.9160	0.9943	7.21	1.22	0.750			
0.3214	20568.98	3.9130	3.9130	1.0057	7.20	1.21	0.750			
0.3244	20761.34	3.9100	3.9100	1.0063	7.19	1.20	0.750			
0.3274	20954.08	3.9070	3.9070	1.0149	7.17	1.18	0.750			
0.3305	21150.37	3.9040	3.9041	1.0237	7.16	1.17	0.750			
0.3336	21348.33	3.9010	3.9010	1.0348	7.14	1.15	0.750			
0.3367	21550.20	3.8980	3.8980	1.0318	7.13	1.14	0.750			
0.3398	21747.03	3.8950	3.8951	1.0433	7.11	1.12	0.750			
0.3429	21946.51	3.8920	3.8920	1.0539	7.10	1.11	0.750			
0.3461	22149.24	3.8890	3.8890	1.0687	7.09	1.10	0.750			
0.3493	22353.39	3.8860	3.8860	1.0832	7.08	1.09	0.750			
0.3526	22564.48	3.8830	3.8830	1.0975	7.07	1.08	0.750			
0.3559	22778.95	3.8800	3.8800	1.1135	7.06	1.07	0.750			
0.3593	22993.69	3.8770	3.8771	1.1360	7.05	1.06	0.750			
0.3627	23210.10	3.8740	3.8740	1.1472	7.03	1.04	0.750			
0.3662	23434.49	3.8710	3.8709	1.1571	7.02	1.03	0.750			
0.3697	23658.83	3.8680	3.8679	1.1664	7.01	1.02	0.750			
0.3732	23886.91	3.8650	3.8652	1.1690	6.99	1.00	0.750			
0.3767	24109.15	3.8620	3.8619	1.1918	6.98	0.99	0.750			
0.3803	24337.59	3.8590	3.8590	1.2008	6.96	0.97	0.750			
0.3839	24569.41	3.8560	3.8560	1.2095	6.95	0.96	0.750			
0.3875	24800.78	3.8530	3.8529	1.2411	6.94	0.95	0.750			
0.3914	25047.48	3.8500	3.8501	1.2508	6.92	0.93	0.750			
0.3951	25286.00	3.8470	3.8470	1.2960	6.91	0.92	0.750			
0.3989	25532.46	3.8440	3.8439	1.4040	6.90	0.91	0.750			
0.4031	25796.29	3.8410	3.8409	1.5232	6.88	0.89	0.750	0.418	0.884	
0.4078	26100.46	3.8380	3.8378	1.6116	6.86	0.87	0.750			
0.4130	26432.61	3.8350	3.8358	1.6124	6.84	0.85	0.750			
0.4181	26756.03	3.8320	3.8323	1.6140	6.82	0.83	0.750			
0.4227	27051.55	3.8290	3.8288	1.5486	6.79	0.80	0.750			
0.4273	27345.13	3.8260	3.8259	1.5148	6.77	0.78	0.750			
0.4315	27616.43	3.8230	3.8230	1.4965	6.75	0.76	0.750			
0.4360	27906.60	3.8200	3.8200	1.5348	6.73	0.74	0.750			
0.4407	28203.43	3.8170	3.8170	1.5441	6.71	0.72	0.750			
0.4453	28500.80	3.8140	3.8142	1.5750	6.70	0.71	0.750			
0.4501	28803.74	3.8110	3.8112	1.6153	6.68	0.69	0.750			
0.4549	29115.74	3.8080	3.8081	1.6499	6.66	0.67	0.750			
0.4600	29439.74	3.8050	3.8049	1.6618	6.63	0.64	0.750			
0.4650	29762.41	3.8020	3.8022	1.7058	6.61	0.62	0.750			
0.4702	30092.49	3.7990	3.7992	1.7265	6.59	0.60	0.750			
0.4754	30426.67	3.7960	3.7960	1.7679	6.56	0.57	0.750			
0.4807	30764.60	3.7930	3.7932	1.7889	6.54	0.55	0.750			
0.4862	31116.63	3.7900	3.7900	1.8027	6.51	0.52	0.750			
0.4918	31472.21	3.7870	3.7868	1.8431	6.49	0.50	0.750			
0.4972	31822.80	3.7840	3.7840	1.8633	6.47	0.48	0.750			
0.5028	32182.26	3.7810	3.7809	1.8530	6.45	0.46	0.750			
0.5085	32541.30	3.7780	3.7779	1.8780	6.42	0.43	0.750			
0.5140	32897.87	3.7750	3.7752	1.8928	6.40	0.41	0.750			
0.5197	33260.03	3.7720	3.7719	1.8720	6.37	0.38	0.750			
0.5254	33626.67	3.7690	3.7690	1.8986	6.34	0.35	0.750			
0.5311	33991.01	3.7660	3.7661	1.9083	6.31	0.32	0.750			
0.5369	34361.07	3.7630	3.7630	1.9323	6.29	0.30	0.750			
0.5427	34733.83	3.7600	3.7598	1.9467	6.27	0.28	0.750			
0.5486	35109.59	3.7570	3.7570	1.9882	6.25	0.26	0.750			
0.5545	35486.30	3.7540	3.7540	2.0193	6.22	0.23	0.750			
0.5607	35882.65	3.7510	3.7510	2.0799	6.19	0.20	0.750			
0.5670	36287.89	3.7480	3.7481	2.1273	6.16	0.17	0.750			
0.5735	36703.36	3.7450	3.7450	2.1673	6.13	0.14	0.750			
0.5800	37121.06	3.7420	3.7419	2.1858	6.11	0.12	0.750			
0.5866	37541.69	3.7390	3.7390	2.2342	6.09	0.10	0.750			
0.5933	37973.42	3.7360	3.7359	2.2839	6.07	0.08	0.750			
0.6003	38420.18	3.7330	3.7330	2.3394	6.04	0.05	0.750			
0.6075	38878.86	3.7300	3.7299	2.3605	6.02	0.03	0.750			
0.6145	39330.28	3.7270	3.7270	2.3505	6.00	0.01	0.750			
0.6216	39780.45	3.7240	3.7239	2.2612	5.98	-0.01	0.750			
0.6284	40216.94	3.7210	3.7211	2.2081	5.96	-0.03	0.750			
0.6349	40635.07	3.7180	3.7178	2.0579	5.95	-0.04	0.750			
0.6408	41013.04	3.7150	3.7152	1.9000	5.94	-0.05	0.750			
0.6464	41366.75	3.7120	3.7120	1.7332	5.93	-0.06	0.750			
0.6512	41679.99	3.7090	3.7089	1.5634	5.93	-0.06	0.750			
0.6556	41958.41	3.7060	3.7062	1.3934	5.93	-0.06	0.750			
0.6596	42211.96	3.7030	3.7030	1.2814	5.93	-0.06	0.750			
0.6632	42443.02	3.7000	3.7000	1.1615	5.93	-0.06	0.750			
0.6663	42642.51	3.6970	3.6970	1.0573	5.93	-0.06	0.750			
0.6693	42833.71	3.6940	3.6940	1.0034	5.93	-0.06	0.750			
0.6721	43017.53	3.6910	3.6911	0.9556	5.93	-0.06	0.750			
0.6750	43197.29	3.6880	3.6880	0.9221	5.93	-0.06	0.750			
0.6777	43373.03	3.6850	3.6850	0.8853	5.93	-0.06	0.750			
0.6803	43538.47	3.6820	3.6820	0.8557	5.93	-0.06	0.750			
0.6828	43700.86	3.6790	3.6791	0.8314	5.93	-0.06	0.750			
0.6852	43854.55	3.6760	3.6759	0.7977	5.93	-0.06	0.750			
0.6876	44005.26	3.6730	3.6730	0.7728	5.93	-0.06	0.750			
0.6899	44150.96	3.6700	3.6700	0.7457	5.94	-0.05	0.750			
0.6921	44292.92	3.6670	3.6670	0.7200	5.94	-0.05	0.750			
0.6942	44431.21	3.6640	3.6640	0.6937	5.94	-0.05	0.750			
0.6962	44559.98	3.6610	3.6610	0.6576	5.95	-0.04	0.750			
0.6982	44683.43	3.6580	3.6580	0.6269	5.95	-0.04	0.750			
0.7000	44800.30	3.6550	3.6550	0.5962	5.96	-0.03	0.750			
0.7017	44911.59	3.6520	3.6520	0.5665	5.96	-0.03	0.750			
0.7034	45017.41	3.6490	3.6490	0.5378	5.97	-0.02	0.750			
0.7050	45117.93	3.6460	3.6459	0.5072	5.97	-0.02	0.750			
0.7065	45213.33	3.6430	3.6430	0.4747	5.98	-0.01	0.750			
0.7078	45301.85	3.6400	3.6400	0.4437	5.98	-0.01	0.750			
0.7091	45383.46	3.6370	3.6370	0.4098	5.98	-0.01	0.750			
0.7103	45459.37	3.6340	3.6340	0.3742	5.99	-0.00	0.750			
0.7114	45527.89	3.6310	3.6310	0.3395	5.99	0.00	0.750			
0.7123	45590.11	3.6280	3.6281	0.3044	5.99	0.00	0.750			
0.7132	45646.82	3.6250	3.6250	0.2666	6.00	0.01	0.750			
0.7140	45694.48	3.6220	3.6218	0.2269	6.00	0.01	0.750			
0.7146	45734.32	3.6190	3.6190	0.1855	6.00	0.01	0.750			
0.7151	45766.13	3.6160	3.6162	0.1442	6.00	0.01	0.750			
0.7155	45790.65	3.6130	3.6134	0.1026	6.00	0.01	0.750			
0.7158	45808.99	3.6100	3.6096	0.0574	6.01	0.02	0.750			
0.7158	45812.43	3.6040	3.6079	-0.0394	6.01	0.02	0.750			
0.7159	45815.36	3.6070	3.5982	0.0090	6.01	0.02	0.750			
