Ah_balance (normalized)	Ah_balance (mAh)	Voltage - fit (V)	Voltage -  interpolate (V)	dQ/dV (1/V)	Temperature (°C)	Temperature - diff (°C)	Current (C)	R_DC 0ms (mOhm)	R_DC 50ms (mOhm)	R_DC 50 ms PEC (mOhm)
0.0967	6191.31	4.0060	4.0055	-0.0797	6.00	0.01	-0.750			
0.0970	6209.41	4.0030	4.0028	-0.1088	6.00	0.01	-0.750			
0.0974	6233.68	4.0000	3.9999	-0.1369	6.00	0.01	-0.750			
0.0979	6262.69	3.9970	3.9970	-0.1636	6.00	0.01	-0.750			
0.0984	6297.37	3.9940	3.9941	-0.1878	6.00	0.01	-0.750			
0.0990	6335.97	3.9910	3.9910	-0.2119	5.99	0.00	-0.750			
0.0997	6379.76	3.9880	3.9880	-0.2373	5.99	0.00	-0.750			
0.1004	6427.23	3.9850	3.9851	-0.2614	5.99	-0.00	-0.750			
0.1012	6479.38	3.9820	3.9820	-0.2862	5.99	-0.00	-0.750			
0.1021	6537.06	3.9790	3.9789	-0.3105	5.98	-0.01	-0.750			
0.1031	6599.39	3.9760	3.9760	-0.3340	5.98	-0.01	-0.750			
0.1042	6665.91	3.9730	3.9731	-0.3582	5.98	-0.01	-0.750			
0.1053	6736.95	3.9700	3.9700	-0.3829	5.97	-0.02	-0.750			
0.1064	6812.39	3.9670	3.9670	-0.4067	5.97	-0.02	-0.750			
0.1077	6892.37	3.9640	3.9640	-0.4306	5.97	-0.02	-0.750			
0.1090	6978.07	3.9610	3.9609	-0.4530	5.96	-0.03	-0.750			
0.1104	7067.95	3.9580	3.9581	-0.4770	5.96	-0.03	-0.750			
0.1119	7161.75	3.9550	3.9550	-0.4983	5.95	-0.04	-0.750			
0.1134	7259.78	3.9520	3.9520	-0.5194	5.95	-0.04	-0.750			
0.1150	7361.40	3.9490	3.9489	-0.5395	5.95	-0.04	-0.750			
0.1167	7466.45	3.9460	3.9460	-0.5578	5.94	-0.05	-0.750			
0.1184	7574.86	3.9430	3.9431	-0.5809	5.94	-0.05	-0.750			
0.1202	7691.18	3.9400	3.9399	-0.5974	5.94	-0.05	-0.750			
0.1220	7806.98	3.9370	3.9370	-0.6107	5.93	-0.06	-0.750			
0.1238	7925.51	3.9340	3.9341	-0.6234	5.93	-0.06	-0.750			
0.1257	8047.23	3.9310	3.9309	-0.6352	5.93	-0.06	-0.750			
0.1277	8170.07	3.9280	3.9280	-0.6461	5.93	-0.06	-0.750			
0.1296	8294.88	3.9250	3.9250	-0.6549	5.93	-0.06	-0.750			
0.1316	8420.87	3.9220	3.9221	-0.6673	5.93	-0.06	-0.750			
0.1336	8551.89	3.9190	3.9189	-0.6783	5.93	-0.06	-0.750			
0.1357	8682.32	3.9160	3.9160	-0.6846	5.93	-0.06	-0.750			
0.1377	8815.32	3.9130	3.9132	-0.6896	5.93	-0.06	-0.750			
0.1398	8948.12	3.9100	3.9098	-0.6978	5.93	-0.06	-0.750			
0.1419	9081.46	3.9070	3.9072	-0.7053	5.93	-0.06	-0.750			
0.1440	9217.11	3.9040	3.9039	-0.7098	5.92	-0.07	-0.750			
0.1462	9355.21	3.9010	3.9010	-0.7167	5.92	-0.07	-0.750			
0.1483	9494.19	3.8980	3.8979	-0.7205	5.92	-0.07	-0.750			
0.1505	9632.29	3.8950	3.8951	-0.7246	5.92	-0.07	-0.750			
0.1527	9772.30	3.8920	3.8920	-0.7279	5.92	-0.07	-0.750			
0.1548	9910.05	3.8890	3.8890	-0.7301	5.93	-0.06	-0.750			
0.1571	10051.25	3.8860	3.8860	-0.7330	5.93	-0.06	-0.750			
0.1593	10192.40	3.8830	3.8830	-0.7384	5.93	-0.06	-0.750			
0.1615	10334.33	3.8800	3.8798	-0.7392	5.94	-0.05	-0.750			
0.1637	10477.08	3.8770	3.8768	-0.7421	5.94	-0.05	-0.750			
0.1659	10619.40	3.8740	3.8741	-0.7430	5.94	-0.05	-0.750			
0.1681	10761.52	3.8710	3.8710	-0.7505	5.94	-0.05	-0.750			
0.1704	10906.14	3.8680	3.8680	-0.7480	5.95	-0.04	-0.750			
0.1727	11052.34	3.8650	3.8649	-0.7541	5.95	-0.04	-0.750			
0.1750	11197.28	3.8620	3.8622	-0.7537	5.95	-0.04	-0.750			
0.1772	11342.87	3.8590	3.8590	-0.7518	5.96	-0.03	-0.750			
0.1795	11485.60	3.8560	3.8560	-0.7577	5.96	-0.03	-0.750			
0.1817	11630.70	3.8530	3.8530	-0.7608	5.97	-0.02	-0.750			
0.1840	11776.49	3.8500	3.8499	-0.7622	5.97	-0.02	-0.750			
0.1863	11924.25	3.8470	3.8469	-0.7654	5.98	-0.01	-0.750			
0.1886	12071.82	3.8440	3.8441	-0.7671	5.98	-0.01	-0.750			
0.1909	12218.80	3.8410	3.8410	-0.7700	5.98	-0.01	-0.750			
0.1933	12368.09	3.8380	3.8379	-0.7654	5.98	-0.01	-0.750			
0.1955	12511.63	3.8350	3.8350	-0.7618	5.99	-0.00	-0.750			
0.1978	12660.12	3.8320	3.8320	-0.7676	5.99	-0.00	-0.750			
0.2001	12808.25	3.8290	3.8293	-0.7704	5.99	0.00	-0.750			
0.2024	12955.77	3.8260	3.8260	-0.7701	6.00	0.01	-0.750			
0.2047	13103.79	3.8230	3.8230	-0.7690	6.01	0.02	-0.750			
0.2071	13251.36	3.8200	3.8200	-0.7693	6.01	0.02	-0.750			
0.2094	13400.92	3.8170	3.8170	-0.7712	6.02	0.03	-0.750			
0.2117	13546.51	3.8140	3.8140	-0.7698	6.03	0.04	-0.750			
0.2140	13694.51	3.8110	3.8110	-0.7708	6.03	0.04	-0.750			
0.2163	13841.99	3.8080	3.8080	-0.7719	6.04	0.05	-0.750			
0.2186	13990.89	3.8050	3.8050	-0.7724	6.04	0.05	-0.750			
0.2209	14138.95	3.8020	3.8020	-0.7773	6.04	0.05	-0.750			
0.2233	14288.78	3.7990	3.7989	-0.7773	6.05	0.06	-0.750			
0.2256	14438.42	3.7960	3.7960	-0.7761	6.05	0.06	-0.750			
0.2279	14586.66	3.7930	3.7930	-0.7766	6.05	0.06	-0.750			
0.2303	14736.55	3.7900	3.7901	-0.7799	6.06	0.07	-0.750			
0.2326	14886.22	3.7870	3.7869	-0.7812	6.06	0.07	-0.750			
0.2349	15036.75	3.7840	3.7840	-0.7798	6.07	0.08	-0.750			
0.2373	15185.76	3.7810	3.7810	-0.7781	6.07	0.08	-0.750			
0.2396	15336.30	3.7780	3.7780	-0.7822	6.08	0.09	-0.750			
0.2420	15485.92	3.7750	3.7750	-0.7839	6.08	0.09	-0.750			
0.2443	15635.57	3.7720	3.7719	-0.7799	6.09	0.10	-0.750			
0.2466	15785.01	3.7690	3.7690	-0.7823	6.10	0.11	-0.750			
0.2490	15935.79	3.7660	3.7660	-0.7833	6.11	0.12	-0.750			
0.2514	16086.64	3.7630	3.7630	-0.7863	6.11	0.12	-0.750			
0.2537	16237.36	3.7600	3.7600	-0.7886	6.12	0.13	-0.750			
0.2561	16389.22	3.7570	3.7569	-0.7891	6.12	0.13	-0.750			
0.2584	16540.64	3.7540	3.7540	-0.7922	6.12	0.13	-0.750			
0.2609	16694.54	3.7510	3.7510	-0.7946	6.13	0.14	-0.750			
0.2632	16846.30	3.7480	3.7481	-0.7949	6.13	0.14	-0.750			
0.2656	16998.99	3.7450	3.7449	-0.7988	6.14	0.15	-0.750			
0.2680	17151.41	3.7420	3.7420	-0.8001	6.14	0.15	-0.750			
0.2704	17305.61	3.7390	3.7390	-0.8020	6.15	0.16	-0.750			
0.2728	17459.99	3.7360	3.7360	-0.8075	6.15	0.16	-0.750			
0.2752	17615.20	3.7330	3.7330	-0.8137	6.16	0.17	-0.750			
0.2777	17773.35	3.7300	3.7299	-0.8180	6.16	0.17	-0.750			
0.2802	17930.36	3.7270	3.7269	-0.8233	6.16	0.17	-0.750			
0.2826	18089.22	3.7240	3.7241	-0.8281	6.17	0.18	-0.750			
0.2852	18249.79	3.7210	3.7210	-0.8321	6.17	0.18	-0.750			
0.2877	18410.07	3.7180	3.7182	-0.8356	6.17	0.18	-0.750			
0.2901	18569.43	3.7150	3.7150	-0.8363	6.18	0.19	-0.750			
0.2927	18730.12	3.7120	3.7120	-0.8481	6.19	0.20	-0.750			
0.2952	18894.75	3.7090	3.7090	-0.8555	6.19	0.20	-0.750			
0.2978	19060.41	3.7060	3.7059	-0.8664	6.20	0.21	-0.750			
0.3004	19227.43	3.7030	3.7032	-0.8697	6.21	0.22	-0.750			
0.3030	19395.03	3.7000	3.7000	-0.8801	6.21	0.22	-0.750			
0.3057	19563.64	3.6970	3.6970	-0.8861	6.22	0.23	-0.750			
0.3083	19733.02	3.6940	3.6940	-0.8919	6.22	0.23	-0.750			
0.3111	19907.82	3.6910	3.6909	-0.9013	6.23	0.24	-0.750			
0.3138	20080.44	3.6880	3.6880	-0.9076	6.23	0.24	-0.750			
0.3165	20254.61	3.6850	3.6851	-0.9170	6.23	0.24	-0.750			
0.3192	20431.92	3.6820	3.6820	-0.9266	6.23	0.24	-0.750			
0.3220	20608.73	3.6790	3.6790	-0.9376	6.23	0.24	-0.750			
0.3249	20790.83	3.6760	3.6757	-0.9533	6.23	0.24	-0.750			
0.3278	20976.01	3.6730	3.6730	-0.9642	6.23	0.24	-0.750			
0.3307	21163.30	3.6700	3.6700	-0.9747	6.24	0.25	-0.750			
0.3336	21352.53	3.6670	3.6670	-0.9785	6.24	0.25	-0.750			
0.3366	21540.90	3.6640	3.6639	-0.9840	6.25	0.26	-0.750			
0.3395	21729.02	3.6610	3.6610	-0.9976	6.25	0.26	-0.750			
0.3425	21920.63	3.6580	3.6579	-1.0058	6.25	0.26	-0.750			
0.3456	22115.75	3.6550	3.6549	-1.0111	6.25	0.26	-0.750			
0.3486	22310.43	3.6520	3.6519	-1.0166	6.25	0.26	-0.750			
0.3517	22507.01	3.6490	3.6490	-1.0372	6.25	0.26	-0.750			
0.3548	22708.30	3.6460	3.6459	-1.0472	6.26	0.27	-0.750			
0.3579	22907.58	3.6430	3.6429	-1.0554	6.26	0.27	-0.750			
0.3611	23110.05	3.6400	3.6400	-1.0650	6.27	0.28	-0.750			
0.3644	23320.06	3.6370	3.6371	-1.0940	6.27	0.28	-0.750			
0.3677	23533.45	3.6340	3.6339	-1.1078	6.27	0.28	-0.750			
0.3710	23747.14	3.6310	3.6310	-1.1129	6.27	0.28	-0.750			
0.3744	23959.71	3.6280	3.6282	-1.1220	6.27	0.28	-0.750			
0.3778	24178.96	3.6250	3.6250	-1.1424	6.27	0.28	-0.750			
0.3813	24400.68	3.6220	3.6219	-1.1479	6.28	0.29	-0.750			
0.3847	24621.39	3.6190	3.6189	-1.1556	6.28	0.29	-0.750			
0.3882	24842.63	3.6160	3.6162	-1.1626	6.28	0.29	-0.750			
0.3917	25069.07	3.6130	3.6130	-1.1804	6.28	0.29	-0.750			
0.3952	25295.47	3.6100	3.6100	-1.1951	6.28	0.29	-0.750			
0.3988	25521.28	3.6070	3.6071	-1.2116	6.28	0.29	-0.750			
0.4025	25759.30	3.6040	3.6040	-1.2373	6.28	0.29	-0.750			
0.4063	26000.05	3.6010	3.6010	-1.2472	6.27	0.28	-0.750			
0.4100	26242.61	3.5980	3.5979	-1.2584	6.27	0.28	-0.750			
0.4138	26486.29	3.5950	3.5945	-1.2769	6.27	0.28	-0.750	0.473	1.102	
0.4177	26732.44	3.5920	3.5919	-1.2815	6.27	0.28	-0.750			
0.4216	26979.41	3.5890	3.5889	-1.2855	6.28	0.29	-0.750			
0.4254	27225.09	3.5860	3.5862	-1.2976	6.28	0.29	-0.750			
0.4293	27478.16	3.5830	3.5829	-1.3160	6.28	0.29	-0.750			
0.4333	27731.12	3.5800	3.5799	-1.3289	6.27	0.28	-0.750			
0.4373	27985.12	3.5770	3.5773	-1.3457	6.27	0.28	-0.750			
0.4414	28247.62	3.5740	3.5739	-1.3638	6.28	0.29	-0.750			
0.4455	28511.64	3.5710	3.5709	-1.3765	6.28	0.29	-0.750			
0.4496	28776.19	3.5680	3.5682	-1.3950	6.29	0.30	-0.750			
0.4539	29047.82	3.5650	3.5649	-1.4131	6.29	0.30	-0.750			
0.4581	29318.89	3.5620	3.5620	-1.4219	6.30	0.31	-0.750			
0.4624	29590.84	3.5590	3.5591	-1.4360	6.30	0.31	-0.750			
0.4667	29869.67	3.5560	3.5560	-1.4458	6.31	0.32	-0.750			
0.4711	30149.09	3.5530	3.5529	-1.4792	6.31	0.32	-0.750			
0.4756	30437.59	3.5500	3.5500	-1.4955	6.32	0.33	-0.750			
0.4801	30727.58	3.5470	3.5469	-1.5187	6.32	0.33	-0.750			
0.4847	31022.94	3.5440	3.5439	-1.5358	6.33	0.34	-0.750			
0.4894	31321.85	3.5410	3.5409	-1.5388	6.33	0.34	-0.750			
0.4940	31618.70	3.5380	3.5380	-1.5598	6.34	0.35	-0.750			
0.4987	31919.34	3.5350	3.5349	-1.5701	6.34	0.35	-0.750			
0.5034	32217.93	3.5320	3.5319	-1.5730	6.34	0.35	-0.750			
0.5082	32525.62	3.5290	3.5292	-1.5941	6.35	0.36	-0.750			
0.5130	32831.37	3.5260	3.5261	-1.5963	6.35	0.36	-0.750			
0.5178	33141.53	3.5230	3.5230	-1.6199	6.37	0.38	-0.750			
0.5228	33456.66	3.5200	3.5199	-1.6306	6.38	0.39	-0.750			
0.5277	33772.78	3.5170	3.5168	-1.6354	6.39	0.40	-0.750			
0.5326	34086.94	3.5140	3.5141	-1.6452	6.40	0.41	-0.750			
0.5375	34401.55	3.5110	3.5112	-1.6482	6.41	0.42	-0.750			
0.5425	34717.41	3.5080	3.5081	-1.6357	6.42	0.43	-0.750			
0.5474	35034.16	3.5050	3.5049	-1.6408	6.43	0.44	-0.750			
0.5522	35342.93	3.5020	3.5020	-1.6311	6.43	0.44	-0.750			
0.5572	35663.08	3.4990	3.4990	-1.6461	6.44	0.45	-0.750			
0.5622	35978.68	3.4960	3.4960	-1.6412	6.45	0.46	-0.750			
0.5671	36292.84	3.4930	3.4929	-1.6237	6.46	0.47	-0.750			
0.5719	36604.46	3.4900	3.4902	-1.6283	6.48	0.49	-0.750			
0.5770	36926.75	3.4870	3.4868	-1.5980	6.49	0.50	-0.750			
0.5817	37230.39	3.4840	3.4840	-1.5529	6.51	0.52	-0.750			
0.5863	37524.98	3.4810	3.4814	-1.5292	6.52	0.53	-0.750			
0.5908	37809.82	3.4780	3.4780	-1.5186	6.53	0.54	-0.750			
0.5952	38094.73	3.4750	3.4750	-1.5152	6.54	0.55	-0.750			
0.5996	38376.69	3.4720	3.4720	-1.5230	6.55	0.56	-0.750			
0.6043	38672.53	3.4690	3.4691	-1.5435	6.56	0.57	-0.750			
0.6091	38984.51	3.4660	3.4658	-1.5578	6.58	0.59	-0.750			
0.6138	39284.02	3.4630	3.4629	-1.5450	6.59	0.60	-0.750			
0.6184	39575.58	3.4600	3.4602	-1.5160	6.60	0.61	-0.750			
0.6229	39863.04	3.4570	3.4569	-1.5023	6.62	0.63	-0.750			
0.6273	40149.02	3.4540	3.4540	-1.4804	6.63	0.64	-0.750			
0.6318	40435.90	3.4510	3.4509	-1.4721	6.65	0.66	-0.750			
0.6362	40718.25	3.4480	3.4479	-1.4611	6.67	0.68	-0.750			
0.6406	40997.52	3.4450	3.4449	-1.4358	6.69	0.70	-0.750			
0.6449	41272.36	3.4420	3.4420	-1.4107	6.71	0.72	-0.750			
0.6491	41540.54	3.4390	3.4391	-1.3881	6.73	0.74	-0.750			
0.6532	41803.14	3.4360	3.4359	-1.3533	6.74	0.75	-0.750			
0.6573	42066.34	3.4330	3.4329	-1.3285	6.75	0.76	-0.750			
0.6612	42315.01	3.4300	3.4301	-1.2988	6.77	0.78	-0.750			
0.6650	42559.90	3.4270	3.4270	-1.2697	6.78	0.79	-0.750			
0.6688	42803.20	3.4240	3.4239	-1.2461	6.80	0.81	-0.750			
0.6725	43038.08	3.4210	3.4209	-1.2249	6.82	0.83	-0.750			
0.6761	43269.13	3.4180	3.4182	-1.2023	6.84	0.85	-0.750			
0.6798	43505.71	3.4150	3.4149	-1.1852	6.85	0.86	-0.750			
0.6833	43731.24	3.4120	3.4120	-1.1539	6.87	0.88	-0.750			
0.6867	43948.06	3.4090	3.4091	-1.1180	6.89	0.90	-0.750			
0.6900	44160.94	3.4060	3.4060	-1.0896	6.90	0.91	-0.750			
0.6932	44366.55	3.4030	3.4029	-1.0562	6.92	0.93	-0.750			
0.6963	44565.11	3.4000	3.4000	-1.0195	6.93	0.94	-0.750			
0.6993	44756.47	3.3970	3.3968	-0.9916	6.95	0.96	-0.750			
0.7023	44944.83	3.3940	3.3940	-0.9780	6.96	0.97	-0.750			
0.7052	45130.60	3.3910	3.3910	-0.9467	6.98	0.99	-0.750			
0.7080	45309.55	3.3880	3.3879	-0.9211	7.00	1.01	-0.750			
0.7107	45484.67	3.3850	3.3850	-0.8957	7.02	1.03	-0.750			
0.7134	45654.69	3.3820	3.3821	-0.8721	7.04	1.05	-0.750			
0.7159	45818.80	3.3790	3.3789	-0.8539	7.05	1.06	-0.750			
0.7184	45979.09	3.3760	3.3760	-0.8247	7.07	1.08	-0.750			
0.7209	46134.98	3.3730	3.3730	-0.7990	7.08	1.09	-0.750			
0.7233	46289.66	3.3700	3.3700	-0.7806	7.10	1.11	-0.750			
0.7256	46437.78	3.3670	3.3671	-0.7517	7.11	1.12	-0.750			
0.7278	46579.99	3.3640	3.3640	-0.7155	7.13	1.14	-0.750			
0.7299	46713.56	3.3610	3.3610	-0.6724	7.14	1.15	-0.750			
