Ah_balance (normalized)	Ah_balance (mAh)	Voltage - fit (V)	Voltage -  interpolate (V)	dQ/dV (1/V)	Temperature (°C)	Temperature - diff (°C)	Current (C)	R_DC 0ms (mOhm)	R_DC 50ms (mOhm)	R_DC 50 ms PEC (mOhm)
0.1790	11458.97	4.0810	4.0810	0.7683	7.39	1.40	0.750			
0.1814	11609.11	4.0780	4.0779	0.7845	7.38	1.39	0.750			
0.1837	11754.74	4.0750	4.0750	0.7749	7.38	1.39	0.750			
0.1860	11904.80	4.0720	4.0721	0.7814	7.38	1.39	0.750			
0.1884	12055.41	4.0690	4.0690	0.7872	7.37	1.38	0.750			
0.1907	12207.30	4.0660	4.0660	0.7937	7.37	1.38	0.750			
0.1931	12361.12	4.0630	4.0631	0.7902	7.36	1.37	0.750			
0.1955	12512.59	4.0600	4.0601	0.7956	7.36	1.37	0.750			
0.1979	12666.81	4.0570	4.0570	0.7998	7.36	1.37	0.750			
0.2003	12818.19	4.0540	4.0540	0.7975	7.35	1.36	0.750			
0.2027	12972.16	4.0510	4.0509	0.8008	7.35	1.36	0.750			
0.2051	13125.63	4.0480	4.0481	0.8029	7.35	1.36	0.750			
0.2075	13280.07	4.0450	4.0451	0.8045	7.34	1.35	0.750			
0.2099	13434.76	4.0420	4.0420	0.8121	7.34	1.35	0.750			
0.2123	13590.26	4.0390	4.0390	0.8112	7.33	1.34	0.750			
0.2148	13745.63	4.0360	4.0358	0.8174	7.33	1.34	0.750			
0.2173	13904.54	4.0330	4.0330	0.8181	7.33	1.34	0.750			
0.2197	14062.97	4.0300	4.0301	0.8239	7.32	1.33	0.750			
0.2222	14222.26	4.0270	4.0269	0.8260	7.32	1.33	0.750			
0.2247	14379.31	4.0240	4.0240	0.8228	7.31	1.32	0.750			
0.2271	14537.30	4.0210	4.0209	0.8253	7.31	1.32	0.750			
0.2296	14697.02	4.0180	4.0180	0.8316	7.31	1.32	0.750			
0.2321	14856.18	4.0150	4.0150	0.8325	7.30	1.31	0.750			
0.2346	15017.02	4.0120	4.0121	0.8396	7.30	1.31	0.750			
0.2372	15177.87	4.0090	4.0090	0.8404	7.29	1.30	0.750			
0.2397	15339.56	4.0060	4.0058	0.8482	7.29	1.30	0.750			
0.2423	15505.76	4.0030	4.0030	0.8456	7.29	1.30	0.750			
0.2448	15667.11	4.0000	4.0001	0.8512	7.28	1.29	0.750			
0.2474	15832.55	3.9970	3.9970	0.8532	7.28	1.29	0.750			
0.2499	15995.62	3.9940	3.9941	0.8505	7.27	1.28	0.750			
0.2525	16158.61	3.9910	3.9909	0.8531	7.27	1.28	0.750			
0.2550	16322.98	3.9880	3.9881	0.8555	7.27	1.28	0.750			
0.2576	16485.80	3.9850	3.9851	0.8611	7.26	1.27	0.750			
0.2602	16653.84	3.9820	3.9819	0.8678	7.26	1.27	0.750			
0.2628	16819.79	3.9790	3.9790	0.8703	7.25	1.26	0.750			
0.2654	16988.73	3.9760	3.9761	0.8757	7.25	1.26	0.750			
0.2681	17157.22	3.9730	3.9730	0.8781	7.24	1.25	0.750			
0.2707	17325.51	3.9700	3.9700	0.8855	7.24	1.25	0.750			
0.2734	17497.00	3.9670	3.9670	0.8858	7.23	1.24	0.750			
0.2760	17666.33	3.9640	3.9639	0.8883	7.22	1.23	0.750			
0.2787	17838.33	3.9610	3.9610	0.8942	7.22	1.23	0.750			
0.2814	18010.64	3.9580	3.9580	0.8920	7.21	1.22	0.750			
0.2841	18180.49	3.9550	3.9551	0.9044	7.20	1.21	0.750			
0.2867	18351.75	3.9520	3.9521	0.9169	7.20	1.21	0.750			
0.2895	18529.25	3.9490	3.9487	0.9265	7.19	1.20	0.750			
0.2924	18711.56	3.9460	3.9460	0.9338	7.19	1.20	0.750			
0.2952	18891.10	3.9430	3.9431	0.9395	7.18	1.19	0.750			
0.2980	19074.38	3.9400	3.9401	0.9491	7.18	1.19	0.750			
0.3009	19255.98	3.9370	3.9370	0.9484	7.17	1.18	0.750			
0.3037	19439.21	3.9340	3.9340	0.9438	7.16	1.17	0.750			
0.3065	19618.58	3.9310	3.9309	0.9481	7.16	1.17	0.750			
0.3094	19802.22	3.9280	3.9281	0.9590	7.15	1.16	0.750			
0.3123	19988.33	3.9250	3.9251	0.9669	7.14	1.15	0.750			
0.3152	20172.63	3.9220	3.9220	0.9705	7.13	1.14	0.750			
0.3181	20358.70	3.9190	3.9190	0.9785	7.12	1.13	0.750			
0.3210	20546.23	3.9160	3.9160	0.9868	7.11	1.12	0.750			
0.3240	20738.10	3.9130	3.9130	0.9971	7.10	1.11	0.750			
0.3270	20930.10	3.9100	3.9098	1.0021	7.09	1.10	0.750			
0.3301	21124.68	3.9070	3.9070	1.0079	7.08	1.09	0.750			
0.3331	21319.11	3.9040	3.9041	1.0174	7.08	1.09	0.750			
0.3361	21513.46	3.9010	3.9010	1.0297	7.07	1.08	0.750			
0.3393	21712.40	3.8980	3.8979	1.0400	7.06	1.07	0.750			
0.3424	21911.78	3.8950	3.8950	1.0504	7.05	1.06	0.750			
0.3455	22114.82	3.8920	3.8921	1.0617	7.05	1.06	0.750			
0.3488	22320.97	3.8890	3.8890	1.0766	7.04	1.05	0.750			
0.3520	22530.24	3.8860	3.8858	1.0874	7.03	1.04	0.750			
0.3553	22737.59	3.8830	3.8830	1.0991	7.02	1.03	0.750			
0.3586	22949.58	3.8800	3.8800	1.1139	7.01	1.02	0.750			
0.3620	23166.50	3.8770	3.8771	1.1285	7.00	1.01	0.750			
0.3654	23385.61	3.8740	3.8740	1.1267	6.99	1.00	0.750			
0.3688	23600.88	3.8710	3.8711	1.1538	6.98	0.99	0.750			
0.3722	23821.52	3.8680	3.8681	1.1694	6.97	0.98	0.750			
0.3758	24051.34	3.8650	3.8648	1.1797	6.96	0.97	0.750			
0.3794	24278.63	3.8620	3.8620	1.1949	6.95	0.96	0.750			
0.3830	24509.44	3.8590	3.8592	1.2205	6.95	0.96	0.750			
0.3867	24746.41	3.8560	3.8562	1.2426	6.94	0.95	0.750			
0.3904	24985.21	3.8530	3.8528	1.2642	6.93	0.94	0.750			
0.3943	25234.10	3.8500	3.8500	1.2793	6.91	0.92	0.750			
0.3983	25490.42	3.8470	3.8469	1.2826	6.90	0.91	0.750			
0.4021	25731.59	3.8440	3.8440	1.3231	6.89	0.90	0.750			
0.4060	25983.91	3.8410	3.8410	1.3477	6.88	0.89	0.750			
0.4100	26242.57	3.8380	3.8380	1.3861	6.86	0.87	0.750			
0.4142	26511.05	3.8350	3.8350	1.4069	6.85	0.86	0.750	0.397	0.933	
0.4185	26786.92	3.8320	3.8322	1.4530	6.84	0.85	0.750			
0.4231	27076.76	3.8290	3.8291	1.4955	6.82	0.83	0.750			
0.4276	27365.41	3.8260	3.8260	1.5151	6.81	0.82	0.750			
0.4320	27647.06	3.8230	3.8230	1.5128	6.79	0.80	0.750			
0.4366	27944.20	3.8200	3.8201	1.5370	6.78	0.79	0.750			
0.4413	28242.62	3.8170	3.8168	1.5696	6.77	0.78	0.750			
0.4460	28541.65	3.8140	3.8139	1.6174	6.76	0.77	0.750			
0.4508	28850.54	3.8110	3.8111	1.7030	6.75	0.76	0.750			
0.4560	29185.04	3.8080	3.8080	1.8027	6.73	0.74	0.750			
0.4617	29547.03	3.8050	3.8056	1.8414	6.70	0.71	0.750			
0.4674	29916.73	3.8020	3.8018	1.8893	6.68	0.69	0.750			
0.4730	30270.86	3.7990	3.7989	1.8497	6.67	0.68	0.750			
0.4783	30608.03	3.7960	3.7961	1.8286	6.66	0.67	0.750			
0.4839	30970.59	3.7930	3.7933	1.8593	6.63	0.64	0.750			
0.4895	31326.93	3.7900	3.7899	1.9005	6.61	0.62	0.750			
0.4952	31692.29	3.7870	3.7870	1.9285	6.59	0.60	0.750			
0.5010	32065.71	3.7840	3.7840	1.9805	6.57	0.58	0.750			
0.5070	32448.51	3.7810	3.7810	2.0331	6.55	0.56	0.750			
0.5133	32853.18	3.7780	3.7780	2.0657	6.52	0.53	0.750			
0.5195	33250.39	3.7750	3.7751	2.0750	6.49	0.50	0.750			
0.5257	33644.50	3.7720	3.7720	2.1013	6.47	0.48	0.750			
0.5320	34048.42	3.7690	3.7689	2.1190	6.45	0.46	0.750			
0.5384	34460.39	3.7660	3.7660	2.1617	6.42	0.43	0.750			
0.5451	34883.99	3.7630	3.7629	2.2193	6.40	0.41	0.750			
0.5518	35312.85	3.7600	3.7599	2.1982	6.38	0.39	0.750			
0.5584	35738.94	3.7570	3.7572	2.2253	6.35	0.36	0.750			
0.5651	36164.85	3.7540	3.7539	2.2956	6.33	0.34	0.750			
0.5720	36608.63	3.7510	3.7511	2.2919	6.30	0.31	0.750			
0.5790	37058.06	3.7480	3.7482	2.3330	6.27	0.28	0.750			
0.5858	37488.85	3.7450	3.7451	2.3552	6.24	0.25	0.750			
0.5930	37950.19	3.7420	3.7420	2.5294	6.22	0.23	0.750			
0.6009	38456.49	3.7390	3.7390	2.6312	6.19	0.20	0.750			
0.6090	38978.64	3.7360	3.7360	2.7157	6.17	0.18	0.750			
0.6172	39500.14	3.7330	3.7331	2.7648	6.14	0.15	0.750			
0.6256	40040.43	3.7300	3.7301	2.8599	6.11	0.12	0.750			
0.6343	40592.25	3.7270	3.7270	2.8535	6.09	0.10	0.750			
0.6431	41156.24	3.7240	3.7241	2.8554	6.06	0.07	0.750			
0.6517	41708.83	3.7210	3.7209	2.7507	6.03	0.04	0.750			
0.6596	42214.06	3.7180	3.7178	2.5547	6.02	0.03	0.750			
0.6670	42686.51	3.7150	3.7148	2.4783	6.01	0.02	0.750			
0.6740	43135.56	3.7120	3.7119	2.1910	5.99	0.00	0.750			
0.6801	43523.58	3.7090	3.7089	1.9163	5.99	-0.00	0.750			
0.6853	43857.84	3.7060	3.7062	1.6559	5.98	-0.01	0.750			
0.6900	44156.85	3.7030	3.7029	1.4588	5.97	-0.02	0.750			
0.6939	44411.02	3.7000	3.6999	1.2901	5.97	-0.02	0.750			
0.6973	44627.27	3.6970	3.6970	1.1406	5.97	-0.02	0.750			
0.7005	44833.18	3.6940	3.6941	1.0420	5.97	-0.02	0.750			
0.7034	45017.74	3.6910	3.6912	0.9647	5.97	-0.02	0.750			
0.7062	45194.00	3.6880	3.6880	0.8913	5.97	-0.02	0.750			
0.7087	45358.92	3.6850	3.6850	0.8325	5.97	-0.02	0.750			
0.7112	45513.67	3.6820	3.6819	0.7854	5.97	-0.02	0.750			
0.7134	45656.68	3.6790	3.6794	0.7305	5.97	-0.02	0.750			
0.7155	45792.58	3.6760	3.6759	0.6848	5.97	-0.02	0.750			
0.7175	45920.83	3.6730	3.6730	0.6355	5.97	-0.02	0.750			
0.7193	46037.14	3.6700	3.6700	0.5842	5.98	-0.01	0.750			
0.7210	46146.39	3.6670	3.6670	0.5410	5.98	-0.01	0.750			
0.7226	46243.80	3.6640	3.6640	0.4885	5.98	-0.01	0.750			
0.7239	46330.63	3.6610	3.6610	0.4432	5.99	-0.00	0.750			
0.7252	46410.31	3.6580	3.6580	0.4001	5.99	-0.00	0.750			
0.7263	46482.54	3.6550	3.6551	0.3606	5.99	-0.00	0.750			
0.7273	46548.29	3.6520	3.6519	0.3251	5.99	0.00	0.750			
0.7282	46606.58	3.6490	3.6492	0.2877	5.99	0.00	0.750			
0.7291	46659.43	3.6460	3.6459	0.2491	5.99	0.00	0.750			
0.7297	46703.92	3.6430	3.6430	0.2111	5.99	0.00	0.750			
0.7303	46741.12	3.6400	3.6400	0.1714	6.00	0.01	0.750			
0.7308	46770.97	3.6370	3.6372	0.1319	6.00	0.01	0.750			
0.7312	46793.72	3.6340	3.6344	0.0900	6.00	0.01	0.750			
0.7314	46807.65	3.6310	3.6317	0.0439	6.00	0.01	0.750			
0.7314	46811.61	3.6280	3.6305	-0.0026	6.00	0.01	0.750			
