Ah_balance (normalized)	Ah_balance (mAh)	Voltage - fit (V)	Voltage -  interpolate (V)	dQ/dV (1/V)	Temperature (°C)	Temperature - diff (°C)	Current (C)	R_DC 0ms (mOhm)	R_DC 50ms (mOhm)	R_DC 50 ms PEC (mOhm)
0.1781	11398.34	4.0800	4.0801	0.7857	7.47	1.48	0.750			
0.1804	11543.07	4.0770	4.0769	0.7659	7.47	1.48	0.750			
0.1827	11690.67	4.0740	4.0741	0.7785	7.47	1.48	0.750			
0.1850	11842.67	4.0710	4.0711	0.7867	7.47	1.48	0.750			
0.1874	11995.72	4.0680	4.0677	0.7955	7.47	1.48	0.750			
0.1898	12149.14	4.0650	4.0651	0.8003	7.47	1.48	0.750			
0.1922	12303.27	4.0620	4.0620	0.8079	7.47	1.48	0.750			
0.1947	12458.81	4.0590	4.0590	0.8148	7.47	1.48	0.750			
0.1971	12615.16	4.0560	4.0561	0.8151	7.47	1.48	0.750			
0.1996	12774.52	4.0530	4.0528	0.8189	7.47	1.48	0.750			
0.2021	12933.22	4.0500	4.0500	0.8224	7.47	1.48	0.750			
0.2046	13091.98	4.0470	4.0470	0.8141	7.46	1.47	0.750			
0.2070	13244.81	4.0440	4.0441	0.8141	7.46	1.47	0.750			
0.2094	13400.59	4.0410	4.0410	0.8124	7.45	1.46	0.750			
0.2118	13556.46	4.0380	4.0375	0.8141	7.45	1.46	0.750			
0.2143	13713.21	4.0350	4.0352	0.8154	7.45	1.46	0.750			
0.2167	13870.48	4.0320	4.0321	0.8157	7.44	1.45	0.750			
0.2192	14026.84	4.0290	4.0290	0.8235	7.44	1.45	0.750			
0.2216	14183.68	4.0260	4.0261	0.8216	7.43	1.44	0.750			
0.2241	14342.31	4.0230	4.0228	0.8288	7.43	1.44	0.750			
0.2266	14502.94	4.0200	4.0200	0.8406	7.43	1.44	0.750			
0.2291	14665.52	4.0170	4.0171	0.8465	7.42	1.43	0.750			
0.2317	14830.34	4.0140	4.0140	0.8542	7.42	1.43	0.750			
0.2343	14994.12	4.0110	4.0110	0.8517	7.41	1.42	0.750			
0.2369	15158.57	4.0080	4.0076	0.8543	7.41	1.42	0.750			
0.2394	15323.62	4.0050	4.0051	0.8591	7.41	1.42	0.750			
0.2420	15488.76	4.0020	4.0020	0.8600	7.40	1.41	0.750			
0.2446	15653.74	3.9990	3.9989	0.8608	7.40	1.41	0.750			
0.2472	15820.18	3.9960	3.9961	0.8645	7.39	1.40	0.750			
0.2498	15986.94	3.9930	3.9929	0.8588	7.39	1.40	0.750			
0.2524	16152.51	3.9900	3.9899	0.8526	7.39	1.40	0.750			
0.2549	16315.75	3.9870	3.9872	0.8481	7.38	1.39	0.750			
0.2574	16476.20	3.9840	3.9840	0.8439	7.38	1.39	0.750			
0.2599	16636.41	3.9810	3.9810	0.8468	7.37	1.38	0.750			
0.2624	16795.34	3.9780	3.9781	0.8523	7.37	1.38	0.750			
0.2650	16959.98	3.9750	3.9750	0.8637	7.37	1.38	0.750			
0.2677	17131.02	3.9720	3.9719	0.8770	7.36	1.37	0.750			
0.2703	17299.56	3.9690	3.9690	0.8848	7.36	1.37	0.750			
0.2730	17471.98	3.9660	3.9662	0.8895	7.35	1.36	0.750			
0.2757	17643.78	3.9630	3.9630	0.8934	7.35	1.36	0.750			
0.2784	17814.53	3.9600	3.9600	0.8899	7.34	1.35	0.750			
0.2810	17984.59	3.9570	3.9571	0.8974	7.33	1.34	0.750			
0.2837	18156.81	3.9540	3.9540	0.9067	7.32	1.33	0.750			
0.2864	18331.93	3.9510	3.9508	0.9108	7.31	1.32	0.750			
0.2892	18508.58	3.9480	3.9480	0.9075	7.31	1.32	0.750			
0.2919	18682.77	3.9450	3.9451	0.9199	7.30	1.31	0.750			
0.2947	18860.82	3.9420	3.9420	0.9247	7.30	1.31	0.750			
0.2975	19038.05	3.9390	3.9389	0.9320	7.29	1.30	0.750			
0.3002	19214.43	3.9360	3.9360	0.9334	7.29	1.30	0.750			
0.3031	19395.46	3.9330	3.9330	0.9384	7.28	1.29	0.750			
0.3059	19577.77	3.9300	3.9300	0.9495	7.27	1.28	0.750			
0.3088	19760.16	3.9270	3.9271	0.9575	7.27	1.28	0.750			
0.3116	19942.77	3.9240	3.9238	0.9596	7.26	1.27	0.750			
0.3146	20132.24	3.9210	3.9210	0.9628	7.26	1.27	0.750			
0.3174	20315.83	3.9180	3.9180	0.9769	7.25	1.26	0.750			
0.3204	20503.44	3.9150	3.9152	0.9901	7.25	1.26	0.750			
0.3233	20694.37	3.9120	3.9118	0.9915	7.24	1.25	0.750			
0.3263	20886.33	3.9090	3.9091	0.9992	7.24	1.25	0.750			
0.3293	21077.71	3.9060	3.9061	1.0099	7.23	1.24	0.750			
0.3324	21273.10	3.9030	3.9030	1.0231	7.22	1.23	0.750			
0.3355	21470.37	3.9000	3.9000	1.0301	7.21	1.22	0.750			
0.3386	21673.57	3.8970	3.8969	1.0312	7.20	1.21	0.750			
0.3417	21871.04	3.8940	3.8941	1.0470	7.19	1.20	0.750			
0.3449	22072.93	3.8910	3.8911	1.0674	7.18	1.19	0.750			
0.3481	22277.91	3.8880	3.8881	1.0795	7.17	1.18	0.750			
0.3513	22485.73	3.8850	3.8850	1.0872	7.16	1.17	0.750			
0.3546	22696.53	3.8820	3.8821	1.0988	7.15	1.16	0.750			
0.3579	22908.34	3.8790	3.8791	1.1154	7.14	1.15	0.750			
0.3614	23128.71	3.8760	3.8759	1.1367	7.13	1.14	0.750			
0.3647	23342.36	3.8730	3.8730	1.1241	7.13	1.14	0.750			
0.3681	23556.61	3.8700	3.8700	1.1447	7.12	1.13	0.750			
0.3715	23777.44	3.8670	3.8672	1.1641	7.11	1.12	0.750			
0.3750	24001.65	3.8640	3.8640	1.1823	7.11	1.12	0.750			
0.3786	24230.49	3.8610	3.8611	1.2126	7.09	1.10	0.750			
0.3823	24465.72	3.8580	3.8581	1.2345	7.07	1.08	0.750			
0.3860	24706.99	3.8550	3.8548	1.2701	7.05	1.06	0.750			
0.3899	24953.73	3.8520	3.8520	1.2688	7.05	1.06	0.750			
0.3937	25199.70	3.8490	3.8490	1.2819	7.04	1.05	0.750			
0.3976	25446.79	3.8460	3.8461	1.3032	7.03	1.04	0.750			
0.4015	25697.97	3.8430	3.8430	1.3004	7.02	1.03	0.750			
0.4052	25932.20	3.8400	3.8403	1.4046	7.01	1.02	0.750			
0.4092	26191.42	3.8370	3.8372	1.5027	7.00	1.01	0.750			
0.4140	26498.55	3.8340	3.8336	1.6227	6.98	0.99	0.750	0.403	0.928	
0.4193	26836.02	3.8310	3.8295	1.7533	6.97	0.98	0.750			
0.4248	27189.34	3.8280	3.8288	1.7731	6.95	0.96	0.750			
0.4302	27534.52	3.8250	3.8252	1.7219	6.93	0.94	0.750			
0.4351	27847.83	3.8220	3.8220	1.6861	6.92	0.93	0.750			
0.4397	28138.80	3.8190	3.8191	1.5688	6.90	0.91	0.750			
0.4444	28442.74	3.8160	3.8160	1.6135	6.89	0.90	0.750			
0.4493	28756.55	3.8130	3.8128	1.6445	6.87	0.88	0.750			
0.4543	29075.80	3.8100	3.8100	1.6722	6.85	0.86	0.750			
0.4594	29402.32	3.8070	3.8071	1.7144	6.84	0.85	0.750			
0.4646	29733.56	3.8040	3.8040	1.7556	6.82	0.83	0.750			
0.4699	30072.55	3.8010	3.8010	1.7979	6.79	0.80	0.750			
0.4753	30421.50	3.7980	3.7980	1.8352	6.77	0.78	0.750			
0.4810	30781.84	3.7950	3.7950	1.8563	6.75	0.76	0.750			
0.4865	31138.64	3.7920	3.7921	1.9044	6.73	0.74	0.750			
0.4923	31504.05	3.7890	3.7890	1.9431	6.71	0.72	0.750			
0.4982	31887.35	3.7860	3.7859	1.9742	6.69	0.70	0.750			
0.5042	32271.09	3.7830	3.7830	2.0267	6.67	0.68	0.750			
0.5104	32665.20	3.7800	3.7801	2.0573	6.64	0.65	0.750			
0.5165	33057.67	3.7770	3.7769	2.0866	6.61	0.62	0.750			
0.5228	33461.69	3.7740	3.7741	2.1167	6.59	0.60	0.750			
0.5293	33876.95	3.7710	3.7710	2.1674	6.55	0.56	0.750			
0.5358	34288.06	3.7680	3.7680	2.1757	6.52	0.53	0.750			
0.5424	34712.26	3.7650	3.7649	2.2147	6.49	0.50	0.750			
0.5491	35141.81	3.7620	3.7619	2.2187	6.47	0.48	0.750			
0.5558	35568.25	3.7590	3.7591	2.2356	6.44	0.45	0.750			
0.5624	35995.61	3.7560	3.7560	2.2616	6.41	0.42	0.750			
0.5692	36431.13	3.7530	3.7530	2.3259	6.37	0.38	0.750			
0.5764	36887.52	3.7500	3.7500	2.3886	6.34	0.35	0.750			
0.5836	37350.67	3.7470	3.7470	2.4215	6.32	0.33	0.750			
0.5909	37816.22	3.7440	3.7440	2.5012	6.29	0.30	0.750			
0.5987	38315.24	3.7410	3.7410	2.4393	6.25	0.26	0.750			
0.6058	38769.19	3.7380	3.7383	2.4085	6.23	0.24	0.750			
0.6127	39213.82	3.7350	3.7346	2.4556	6.21	0.22	0.750			
0.6202	39693.78	3.7320	3.7321	2.4878	6.17	0.18	0.750			
0.6282	40205.19	3.7290	3.7292	2.7003	6.14	0.15	0.750			
0.6362	40714.98	3.7260	3.7257	2.7963	6.11	0.12	0.750			
0.6446	41257.04	3.7230	3.7231	2.9245	6.09	0.10	0.750			
0.6540	41855.22	3.7200	3.7199	2.8757	6.06	0.07	0.750			
0.6624	42392.34	3.7170	3.7171	2.7114	6.04	0.05	0.750			
0.6701	42887.57	3.7140	3.7140	2.4823	6.02	0.03	0.750			
0.6772	43343.23	3.7110	3.7112	2.2533	6.01	0.02	0.750			
0.6838	43762.33	3.7080	3.7080	2.0178	5.99	0.00	0.750			
0.6895	44127.16	3.7050	3.7049	1.7777	5.99	-0.00	0.750			
0.6944	44440.01	3.7020	3.7021	1.5591	5.98	-0.01	0.750			
0.6986	44709.22	3.6990	3.6989	1.3677	5.98	-0.01	0.750			
0.7023	44945.46	3.6960	3.6959	1.1824	5.98	-0.01	0.750			
0.7054	45147.66	3.6930	3.6930	1.0507	5.98	-0.01	0.750			
0.7083	45328.94	3.6900	3.6901	0.9620	5.97	-0.02	0.750			
0.7110	45502.25	3.6870	3.6869	0.8877	5.97	-0.02	0.750			
0.7135	45665.26	3.6840	3.6840	0.8334	5.97	-0.02	0.750			
0.7159	45817.20	3.6810	3.6810	0.7844	5.98	-0.01	0.750			
0.7182	45965.03	3.6780	3.6781	0.7404	5.98	-0.01	0.750			
0.7204	46106.12	3.6750	3.6750	0.6951	5.98	-0.01	0.750			
0.7224	46232.72	3.6720	3.6720	0.6381	5.99	-0.00	0.750			
0.7242	46350.63	3.6690	3.6689	0.5872	5.99	-0.00	0.750			
0.7259	46458.72	3.6660	3.6659	0.5382	5.99	0.00	0.750			
0.7274	46556.17	3.6630	3.6630	0.4880	5.99	0.00	0.750			
0.7288	46643.25	3.6600	3.6600	0.4405	6.00	0.01	0.750			
0.7300	46723.17	3.6570	3.6570	0.3970	6.00	0.01	0.750			
0.7312	46795.50	3.6540	3.6539	0.3574	6.00	0.01	0.750			
0.7322	46859.78	3.6510	3.6510	0.3168	6.00	0.01	0.750			
0.7331	46916.31	3.6480	3.6480	0.2796	6.00	0.01	0.750			
0.7339	46966.67	3.6450	3.6449	0.2407	6.01	0.02	0.750			
0.7345	47009.68	3.6420	3.6419	0.2037	6.01	0.02	0.750			
0.7351	47044.56	3.6390	3.6390	0.1643	6.01	0.02	0.750			
0.7355	47073.39	3.6360	3.6363	0.1270	6.01	0.02	0.750			
0.7359	47094.76	3.6330	3.6336	0.0870	6.01	0.02	0.750			
0.7361	47109.26	3.6300	3.6304	0.0412	6.01	0.02	0.751			
0.7361	47112.69	3.6270	3.6296	-0.0055	6.01	0.02	0.751			
