Ah_balance (normalized)	Ah_balance (mAh)	Voltage - fit (V)	Voltage -  interpolate (V)	dQ/dV (1/V)	Temperature (°C)	Temperature - diff (°C)	Current (C)	R_DC 0ms (mOhm)	R_DC 50ms (mOhm)	R_DC 50 ms PEC (mOhm)
0.0931	5955.67	4.0040	4.0033	-0.0573	5.99	0.00	-0.750			
0.0933	5970.80	4.0010	4.0006	-0.0919	5.99	0.00	-0.750			
0.0936	5990.94	3.9980	3.9979	-0.1206	5.99	0.00	-0.750			
0.0940	6017.17	3.9950	3.9950	-0.1495	5.99	0.00	-0.750			
0.0945	6049.38	3.9920	3.9920	-0.1757	5.99	0.00	-0.750			
0.0951	6085.95	3.9890	3.9889	-0.2006	5.99	0.00	-0.750			
0.0958	6128.66	3.9860	3.9860	-0.2248	5.99	0.00	-0.750			
0.0965	6174.00	3.9830	3.9832	-0.2493	5.99	0.00	-0.750			
0.0973	6224.03	3.9800	3.9800	-0.2712	5.99	0.00	-0.750			
0.0981	6277.87	3.9770	3.9769	-0.2952	5.99	0.00	-0.750			
0.0990	6336.03	3.9740	3.9741	-0.3184	5.99	0.00	-0.750			
0.1000	6399.26	3.9710	3.9710	-0.3437	5.99	0.00	-0.750			
0.1011	6467.83	3.9680	3.9679	-0.3708	5.99	0.00	-0.750			
0.1022	6541.97	3.9650	3.9651	-0.3943	5.99	0.00	-0.750			
0.1034	6620.03	3.9620	3.9620	-0.4165	5.99	0.00	-0.750			
0.1047	6703.85	3.9590	3.9590	-0.4417	5.99	0.00	-0.750			
0.1061	6791.04	3.9560	3.9559	-0.4607	5.99	0.00	-0.750			
0.1075	6881.45	3.9530	3.9530	-0.4794	5.99	0.00	-0.750			
0.1090	6974.66	3.9500	3.9502	-0.4985	5.99	0.00	-0.750			
0.1105	7071.69	3.9470	3.9470	-0.5176	5.99	0.00	-0.750			
0.1121	7173.36	3.9440	3.9440	-0.5387	5.99	0.00	-0.750			
0.1137	7278.50	3.9410	3.9409	-0.5562	5.99	0.00	-0.750			
0.1154	7388.55	3.9380	3.9381	-0.5762	5.99	0.00	-0.750			
0.1172	7501.11	3.9350	3.9350	-0.5916	5.99	0.00	-0.750			
0.1190	7616.83	3.9320	3.9320	-0.6067	5.99	0.00	-0.750			
0.1209	7734.79	3.9290	3.9289	-0.6178	5.99	0.00	-0.750			
0.1227	7854.20	3.9260	3.9259	-0.6274	5.99	0.00	-0.750			
0.1246	7975.56	3.9230	3.9230	-0.6378	6.00	0.01	-0.750			
0.1265	8098.88	3.9200	3.9200	-0.6502	6.00	0.01	-0.750			
0.1285	8225.00	3.9170	3.9170	-0.6584	6.00	0.01	-0.750			
0.1305	8352.96	3.9140	3.9140	-0.6671	6.00	0.01	-0.750			
0.1325	8481.84	3.9110	3.9110	-0.6749	6.01	0.02	-0.750			
0.1346	8612.98	3.9080	3.9081	-0.6834	6.01	0.02	-0.750			
0.1366	8744.84	3.9050	3.9050	-0.6902	6.01	0.02	-0.750			
0.1387	8876.77	3.9020	3.9020	-0.6976	6.02	0.03	-0.750			
0.1408	9012.35	3.8990	3.8990	-0.6991	6.02	0.03	-0.750			
0.1430	9149.16	3.8960	3.8960	-0.7029	6.02	0.03	-0.750			
0.1451	9284.71	3.8930	3.8929	-0.7069	6.03	0.04	-0.750			
0.1472	9419.99	3.8900	3.8901	-0.7078	6.03	0.04	-0.750			
0.1493	9555.36	3.8870	3.8869	-0.7086	6.04	0.05	-0.750			
0.1514	9689.81	3.8840	3.8840	-0.7147	6.05	0.06	-0.750			
0.1536	9827.22	3.8810	3.8810	-0.7173	6.05	0.06	-0.750			
0.1557	9967.49	3.8780	3.8780	-0.7242	6.06	0.07	-0.750			
0.1579	10108.00	3.8750	3.8749	-0.7287	6.07	0.08	-0.750			
0.1601	10247.38	3.8720	3.8720	-0.7285	6.07	0.08	-0.750			
0.1623	10388.06	3.8690	3.8690	-0.7286	6.08	0.09	-0.750			
0.1645	10527.72	3.8660	3.8660	-0.7309	6.09	0.10	-0.750			
0.1667	10667.72	3.8630	3.8630	-0.7279	6.09	0.10	-0.750			
0.1689	10809.02	3.8600	3.8600	-0.7315	6.10	0.11	-0.750			
0.1711	10949.20	3.8570	3.8571	-0.7335	6.11	0.12	-0.750			
0.1733	11089.83	3.8540	3.8540	-0.7352	6.12	0.13	-0.750			
0.1755	11231.25	3.8510	3.8510	-0.7359	6.12	0.13	-0.750			
0.1777	11372.63	3.8480	3.8480	-0.7439	6.13	0.14	-0.750			
0.1799	11516.47	3.8450	3.8451	-0.7398	6.14	0.15	-0.750			
0.1822	11660.76	3.8420	3.8419	-0.7410	6.14	0.15	-0.750			
0.1844	11801.82	3.8390	3.8392	-0.7395	6.15	0.16	-0.750			
0.1866	11942.68	3.8360	3.8359	-0.7384	6.16	0.17	-0.750			
0.1888	12083.58	3.8330	3.8330	-0.7427	6.17	0.18	-0.750			
0.1910	12227.14	3.8300	3.8300	-0.7399	6.17	0.18	-0.750			
0.1933	12370.36	3.8270	3.8270	-0.7425	6.18	0.19	-0.750			
0.1955	12513.49	3.8240	3.8240	-0.7455	6.19	0.20	-0.750			
0.1978	12656.17	3.8210	3.8210	-0.7455	6.19	0.20	-0.750			
0.2000	12799.16	3.8180	3.8179	-0.7418	6.20	0.21	-0.750			
0.2022	12940.43	3.8150	3.8150	-0.7426	6.21	0.22	-0.750			
0.2044	13083.73	3.8120	3.8121	-0.7413	6.22	0.23	-0.750			
0.2067	13226.79	3.8090	3.8089	-0.7446	6.22	0.23	-0.750			
0.2089	13369.12	3.8060	3.8061	-0.7441	6.23	0.24	-0.750			
0.2111	13511.68	3.8030	3.8030	-0.7441	6.24	0.25	-0.750			
0.2133	13654.28	3.8000	3.8000	-0.7464	6.24	0.25	-0.750			
0.2156	13798.72	3.7970	3.7970	-0.7537	6.25	0.26	-0.750			
0.2179	13944.30	3.7940	3.7940	-0.7555	6.26	0.27	-0.750			
0.2202	14090.19	3.7910	3.7909	-0.7562	6.27	0.28	-0.750			
0.2224	14234.92	3.7880	3.7881	-0.7550	6.27	0.28	-0.750			
0.2247	14380.57	3.7850	3.7850	-0.7556	6.29	0.30	-0.750			
0.2270	14525.47	3.7820	3.7819	-0.7607	6.30	0.31	-0.750			
0.2292	14670.68	3.7790	3.7790	-0.7575	6.31	0.32	-0.750			
0.2315	14816.95	3.7760	3.7760	-0.7642	6.32	0.33	-0.750			
0.2338	14965.03	3.7730	3.7733	-0.7678	6.33	0.34	-0.750			
0.2361	15112.53	3.7700	3.7699	-0.7673	6.34	0.35	-0.750			
0.2384	15259.35	3.7670	3.7670	-0.7675	6.34	0.35	-0.750			
0.2407	15406.20	3.7640	3.7640	-0.7692	6.35	0.36	-0.750			
0.2430	15555.05	3.7610	3.7610	-0.7758	6.36	0.37	-0.750			
0.2454	15703.84	3.7580	3.7579	-0.7766	6.37	0.38	-0.750			
0.2477	15851.51	3.7550	3.7550	-0.7774	6.37	0.38	-0.750			
0.2500	16000.63	3.7520	3.7521	-0.7880	6.38	0.39	-0.750			
0.2524	16154.41	3.7490	3.7489	-0.7899	6.39	0.40	-0.750			
0.2548	16306.60	3.7460	3.7460	-0.7916	6.40	0.41	-0.750			
0.2572	16459.54	3.7430	3.7430	-0.7925	6.40	0.41	-0.750			
0.2596	16611.33	3.7400	3.7401	-0.7980	6.41	0.42	-0.750			
0.2620	16764.81	3.7370	3.7369	-0.8039	6.42	0.43	-0.750			
0.2643	16918.23	3.7340	3.7339	-0.8082	6.43	0.44	-0.750			
0.2668	17073.44	3.7310	3.7310	-0.8104	6.44	0.45	-0.750			
0.2692	17231.26	3.7280	3.7280	-0.8237	6.44	0.45	-0.750			
0.2717	17391.15	3.7250	3.7251	-0.8276	6.45	0.46	-0.750			
0.2742	17549.72	3.7220	3.7219	-0.8330	6.46	0.47	-0.750			
0.2767	17709.31	3.7190	3.7190	-0.8385	6.47	0.48	-0.750			
0.2792	17870.99	3.7160	3.7160	-0.8439	6.48	0.49	-0.750			
0.2818	18035.01	3.7130	3.7129	-0.8544	6.48	0.49	-0.750			
0.2844	18199.68	3.7100	3.7100	-0.8592	6.49	0.50	-0.750			
0.2869	18363.40	3.7070	3.7071	-0.8679	6.50	0.51	-0.750			
0.2896	18532.07	3.7040	3.7039	-0.8774	6.51	0.52	-0.750			
0.2922	18700.93	3.7010	3.7010	-0.8800	6.52	0.53	-0.750			
0.2949	18871.46	3.6980	3.6979	-0.8895	6.53	0.54	-0.750			
0.2975	19042.34	3.6950	3.6951	-0.8957	6.53	0.54	-0.750			
0.3002	19215.49	3.6920	3.6920	-0.9042	6.54	0.55	-0.750			
0.3030	19390.31	3.6890	3.6890	-0.9078	6.55	0.56	-0.750			
0.3057	19564.02	3.6860	3.6860	-0.9144	6.56	0.57	-0.750			
0.3085	19741.65	3.6830	3.6832	-0.9248	6.57	0.58	-0.750			
0.3113	19920.13	3.6800	3.6799	-0.9360	6.57	0.58	-0.750			
0.3141	20100.39	3.6770	3.6770	-0.9384	6.58	0.59	-0.750			
0.3169	20279.63	3.6740	3.6740	-0.9480	6.58	0.59	-0.750			
0.3197	20462.58	3.6710	3.6709	-0.9575	6.59	0.60	-0.750			
0.3226	20649.29	3.6680	3.6680	-0.9692	6.59	0.60	-0.750			
0.3256	20835.24	3.6650	3.6650	-0.9785	6.60	0.61	-0.750			
0.3285	21025.80	3.6620	3.6620	-0.9877	6.61	0.62	-0.750			
0.3315	21215.06	3.6590	3.6590	-0.9942	6.61	0.62	-0.750			
0.3345	21408.25	3.6560	3.6561	-1.0101	6.62	0.63	-0.750			
0.3375	21602.93	3.6530	3.6530	-1.0079	6.62	0.63	-0.750			
0.3406	21797.73	3.6500	3.6500	-1.0152	6.63	0.64	-0.750			
0.3436	21992.07	3.6470	3.6471	-1.0226	6.63	0.64	-0.750			
0.3467	22188.62	3.6440	3.6442	-1.0373	6.63	0.64	-0.750			
0.3498	22388.23	3.6410	3.6409	-1.0472	6.64	0.65	-0.750			
0.3530	22590.45	3.6380	3.6379	-1.0531	6.64	0.65	-0.750			
0.3562	22793.84	3.6350	3.6351	-1.0653	6.65	0.66	-0.750			
0.3594	23001.72	3.6320	3.6321	-1.0848	6.65	0.66	-0.750			
0.3627	23209.78	3.6290	3.6290	-1.0881	6.66	0.67	-0.750			
0.3659	23418.78	3.6260	3.6259	-1.0938	6.66	0.67	-0.750			
0.3692	23629.89	3.6230	3.6230	-1.1007	6.67	0.68	-0.750			
0.3725	23842.60	3.6200	3.6201	-1.1174	6.67	0.68	-0.750			
0.3759	24059.33	3.6170	3.6169	-1.1245	6.68	0.69	-0.750			
0.3793	24276.41	3.6140	3.6139	-1.1281	6.68	0.69	-0.750			
0.3827	24492.74	3.6110	3.6110	-1.1342	6.69	0.70	-0.750			
0.3861	24712.54	3.6080	3.6080	-1.1478	6.69	0.70	-0.750			
0.3896	24932.47	3.6050	3.6050	-1.1567	6.70	0.71	-0.750			
0.3930	25154.76	3.6020	3.6019	-1.1670	6.70	0.71	-0.750			
0.3965	25377.52	3.5990	3.5992	-1.1821	6.71	0.72	-0.750			
0.4002	25611.04	3.5960	3.5959	-1.2034	6.71	0.72	-0.750			
0.4038	25844.01	3.5930	3.5930	-1.2101	6.71	0.72	-0.750			
0.4075	26077.65	3.5900	3.5902	-1.2156	6.71	0.72	-0.750	0.450	1.040	
0.4112	26313.84	3.5870	3.5869	-1.2316	6.71	0.72	-0.750			
0.4149	26550.66	3.5840	3.5839	-1.2357	6.72	0.73	-0.750			
0.4185	26786.28	3.5810	3.5810	-1.2439	6.73	0.74	-0.750			
0.4222	27022.60	3.5780	3.5782	-1.2579	6.73	0.74	-0.750			
0.4261	27271.81	3.5750	3.5751	-1.2794	6.73	0.74	-0.750			
0.4300	27519.22	3.5720	3.5719	-1.2881	6.73	0.74	-0.750			
0.4338	27765.69	3.5690	3.5691	-1.3127	6.73	0.74	-0.750			
0.4379	28023.11	3.5660	3.5660	-1.3256	6.74	0.75	-0.750			
0.4418	28278.28	3.5630	3.5628	-1.3354	6.74	0.75	-0.750			
0.4459	28537.02	3.5600	3.5603	-1.3463	6.75	0.76	-0.750			
0.4499	28796.64	3.5570	3.5569	-1.3581	6.75	0.76	-0.750			
0.4540	29058.32	3.5540	3.5539	-1.3711	6.75	0.76	-0.750			
0.4582	29322.06	3.5510	3.5512	-1.3753	6.75	0.76	-0.750			
0.4623	29590.25	3.5480	3.5479	-1.3999	6.75	0.76	-0.750			
0.4665	29858.36	3.5450	3.5450	-1.4156	6.76	0.77	-0.750			
0.4708	30129.73	3.5420	3.5421	-1.4293	6.76	0.77	-0.750			
0.4751	30407.61	3.5390	3.5390	-1.4385	6.76	0.77	-0.750			
0.4795	30688.48	3.5360	3.5357	-1.4522	6.77	0.78	-0.750			
0.4839	30968.88	3.5330	3.5333	-1.4644	6.77	0.78	-0.750			
0.4883	31250.80	3.5300	3.5299	-1.4717	6.77	0.78	-0.750			
0.4927	31532.10	3.5270	3.5269	-1.4757	6.77	0.78	-0.750			
0.4971	31817.43	3.5240	3.5241	-1.4824	6.77	0.78	-0.750			
0.5016	32104.53	3.5210	3.5210	-1.5124	6.78	0.79	-0.750			
0.5062	32397.67	3.5180	3.5180	-1.5135	6.79	0.80	-0.750			
0.5107	32683.88	3.5150	3.5150	-1.5370	6.79	0.80	-0.750			
0.5154	32988.40	3.5120	3.5119	-1.5331	6.80	0.81	-0.750			
0.5201	33284.17	3.5090	3.5088	-1.5253	6.80	0.81	-0.750			
0.5246	33576.35	3.5060	3.5059	-1.5273	6.80	0.81	-0.750			
0.5292	33870.73	3.5030	3.5029	-1.5215	6.81	0.82	-0.750			
0.5337	34158.58	3.5000	3.5001	-1.5187	6.81	0.82	-0.750			
0.5382	34447.77	3.4970	3.4971	-1.5323	6.82	0.83	-0.750			
0.5428	34739.86	3.4940	3.4940	-1.5271	6.82	0.83	-0.750			
0.5476	35046.26	3.4910	3.4910	-1.5383	6.83	0.84	-0.750			
0.5522	35340.15	3.4880	3.4880	-1.5180	6.84	0.85	-0.750			
0.5567	35630.06	3.4850	3.4851	-1.5190	6.85	0.86	-0.750			
0.5612	35919.00	3.4820	3.4820	-1.5158	6.86	0.87	-0.750			
0.5659	36215.96	3.4790	3.4788	-1.5099	6.87	0.88	-0.750			
0.5703	36500.23	3.4760	3.4762	-1.5009	6.89	0.90	-0.750			
0.5749	36794.41	3.4730	3.4730	-1.4964	6.90	0.91	-0.750			
0.5794	37083.91	3.4700	3.4699	-1.4838	6.90	0.91	-0.750			
0.5838	37366.13	3.4670	3.4672	-1.4764	6.91	0.92	-0.750			
0.5882	37646.61	3.4640	3.4640	-1.4563	6.92	0.93	-0.750			
0.5925	37920.54	3.4610	3.4609	-1.4608	6.93	0.94	-0.750			
0.5970	38206.78	3.4580	3.4582	-1.4539	6.94	0.95	-0.750			
0.6013	38485.75	3.4550	3.4549	-1.4411	6.95	0.96	-0.750			
0.6057	38763.34	3.4520	3.4520	-1.4254	6.96	0.97	-0.750			
0.6099	39035.14	3.4490	3.4490	-1.4128	6.98	0.99	-0.750			
0.6141	39304.47	3.4460	3.4459	-1.4005	7.00	1.01	-0.750			
0.6183	39571.73	3.4430	3.4429	-1.3865	7.02	1.03	-0.750			
0.6224	39830.54	3.4400	3.4401	-1.3715	7.03	1.04	-0.750			
0.6266	40102.78	3.4370	3.4369	-1.3687	7.05	1.06	-0.750			
0.6307	40362.47	3.4340	3.4340	-1.3413	7.06	1.07	-0.750			
0.6347	40618.85	3.4310	3.4311	-1.3212	7.07	1.08	-0.750			
0.6386	40872.80	3.4280	3.4279	-1.2965	7.09	1.10	-0.750			
0.6425	41117.28	3.4250	3.4249	-1.2682	7.10	1.11	-0.750			
0.6462	41355.96	3.4220	3.4222	-1.2416	7.11	1.12	-0.750			
0.6499	41593.14	3.4190	3.4189	-1.2158	7.12	1.13	-0.750			
0.6535	41825.02	3.4160	3.4159	-1.1869	7.13	1.14	-0.750			
0.6570	42049.45	3.4130	3.4130	-1.1575	7.14	1.15	-0.750			
0.6605	42270.94	3.4100	3.4100	-1.1351	7.16	1.17	-0.750			
0.6638	42486.31	3.4070	3.4069	-1.1014	7.17	1.18	-0.750			
0.6671	42691.74	3.4040	3.4040	-1.0703	7.19	1.20	-0.750			
0.6702	42893.91	3.4010	3.4011	-1.0453	7.20	1.21	-0.750			
0.6733	43093.68	3.3980	3.3978	-1.0246	7.22	1.23	-0.750			
0.6764	43287.64	3.3950	3.3949	-0.9987	7.23	1.24	-0.750			
0.6793	43476.48	3.3920	3.3920	-0.9728	7.25	1.26	-0.750			
0.6822	43661.92	3.3890	3.3890	-0.9444	7.26	1.27	-0.750			
0.6850	43843.16	3.3860	3.3860	-0.9233	7.28	1.29	-0.750			
0.6877	44015.61	3.3830	3.3830	-0.8997	7.29	1.30	-0.750			
0.6904	44185.75	3.3800	3.3800	-0.8740	7.30	1.31	-0.750			
0.6930	44351.92	3.3770	3.3768	-0.8518	7.31	1.32	-0.750			
0.6955	44513.07	3.3740	3.3741	-0.8325	7.33	1.34	-0.750			
0.6980	44671.71	3.3710	3.3710	-0.8101	7.34	1.35	-0.750			
0.7004	44824.24	3.3680	3.3680	-0.7916	7.35	1.36	-0.750			
0.7027	44974.10	3.3650	3.3649	-0.7647	7.36	1.37	-0.750			
0.7050	45118.35	3.3620	3.3621	-0.7435	7.37	1.38	-0.750			
0.7072	45261.12	3.3590	3.3589	-0.7269	7.38	1.39	-0.750			
0.7093	45397.89	3.3560	3.3562	-0.7032	7.39	1.40	-0.750			
0.7114	45528.69	3.3530	3.3530	-0.6866	7.41	1.42	-0.750			
0.7134	45659.88	3.3500	3.3500	-0.6709	7.42	1.43	-0.750			
0.7154	45785.17	3.3470	3.3470	-0.6573	7.43	1.44	-0.750			
0.7174	45912.07	3.3440	3.3440	-0.6494	7.44	1.45	-0.750			
0.7193	46035.16	3.3410	3.3410	-0.6416	7.46	1.47	-0.750			
0.7212	46157.44	3.3380	3.3381	-0.6311	7.47	1.48	-0.750			
