Ah_balance (normalized)	Ah_balance (mAh)	Voltage - fit (V)	Voltage -  interpolate (V)	dQ/dV (1/V)	Temperature (°C)	Temperature - diff (°C)	Current (C)	R_DC 0ms (mOhm)	R_DC 50ms (mOhm)	R_DC 50 ms PEC (mOhm)
0.1806	11558.51	4.0810	4.0810	0.7569	7.29	1.32	0.750			
0.1829	11704.72	4.0780	4.0780	0.7623	7.28	1.31	0.750			
0.1852	11850.97	4.0750	4.0751	0.7651	7.28	1.31	0.750			
0.1875	11999.03	4.0720	4.0721	0.7667	7.27	1.30	0.750			
0.1898	12146.35	4.0690	4.0690	0.7665	7.26	1.29	0.750			
0.1921	12293.68	4.0660	4.0660	0.7685	7.25	1.28	0.750			
0.1944	12440.89	4.0630	4.0631	0.7706	7.25	1.28	0.750			
0.1967	12588.11	4.0600	4.0599	0.7713	7.24	1.27	0.750			
0.1990	12736.59	4.0570	4.0567	0.7806	7.23	1.26	0.750			
0.2014	12886.82	4.0540	4.0540	0.7817	7.23	1.26	0.750			
0.2037	13038.58	4.0510	4.0510	0.7857	7.22	1.25	0.750			
0.2061	13189.85	4.0480	4.0480	0.7931	7.21	1.24	0.750			
0.2085	13342.15	4.0450	4.0450	0.7973	7.21	1.24	0.750			
0.2109	13494.98	4.0420	4.0419	0.7990	7.20	1.23	0.750			
0.2133	13649.13	4.0390	4.0389	0.8018	7.20	1.23	0.750			
0.2157	13806.94	4.0360	4.0361	0.7920	7.19	1.22	0.750			
0.2181	13958.41	4.0330	4.0330	0.7960	7.18	1.21	0.750			
0.2204	14107.36	4.0300	4.0301	0.8024	7.18	1.21	0.750			
0.2228	14260.24	4.0270	4.0271	0.8069	7.17	1.20	0.750			
0.2252	14413.87	4.0240	4.0241	0.8142	7.17	1.20	0.750			
0.2277	14572.57	4.0210	4.0211	0.8199	7.15	1.18	0.750			
0.2302	14733.23	4.0180	4.0182	0.8290	7.14	1.17	0.750			
0.2327	14894.85	4.0150	4.0150	0.8327	7.13	1.16	0.750			
0.2352	15054.37	4.0120	4.0120	0.8248	7.12	1.15	0.750			
0.2377	15211.56	4.0090	4.0090	0.8241	7.11	1.14	0.750			
0.2402	15371.75	4.0060	4.0060	0.8077	7.10	1.13	0.750			
0.2426	15527.14	4.0030	4.0030	0.7940	7.10	1.13	0.750			
0.2449	15675.75	4.0000	4.0002	0.7871	7.10	1.13	0.750			
0.2472	15821.32	3.9970	3.9973	0.7878	7.09	1.12	0.750			
0.2495	15970.50	3.9940	3.9936	0.8010	7.09	1.12	0.750			
0.2519	16121.85	3.9910	3.9910	0.8169	7.08	1.11	0.750			
0.2544	16281.09	3.9880	3.9882	0.8280	7.08	1.11	0.750			
0.2570	16449.03	3.9850	3.9850	0.8576	7.07	1.10	0.750			
0.2596	16613.92	3.9820	3.9820	0.8578	7.07	1.10	0.750			
0.2622	16778.78	3.9790	3.9788	0.8623	7.06	1.09	0.750			
0.2648	16945.88	3.9760	3.9761	0.8602	7.05	1.08	0.750			
0.2674	17111.89	3.9730	3.9730	0.8641	7.05	1.08	0.750			
0.2699	17276.55	3.9700	3.9701	0.8752	7.04	1.07	0.750			
0.2726	17443.77	3.9670	3.9671	0.8757	7.03	1.06	0.750			
0.2752	17613.05	3.9640	3.9640	0.8836	7.03	1.06	0.750			
0.2779	17785.94	3.9610	3.9610	0.8896	7.02	1.05	0.750			
0.2806	17956.45	3.9580	3.9582	0.8988	7.01	1.04	0.750			
0.2833	18130.44	3.9550	3.9551	0.9072	7.00	1.03	0.750			
0.2860	18304.83	3.9520	3.9518	0.9094	6.99	1.02	0.750			
0.2887	18478.66	3.9490	3.9490	0.9177	6.98	1.01	0.750			
0.2915	18655.11	3.9460	3.9461	0.9183	6.98	1.01	0.750			
0.2942	18830.86	3.9430	3.9431	0.9258	6.97	1.00	0.750			
0.2970	19011.15	3.9400	3.9400	0.9307	6.96	0.99	0.750			
0.2998	19188.39	3.9370	3.9365	0.9325	6.95	0.98	0.750			
0.3026	19367.35	3.9340	3.9343	0.9354	6.94	0.97	0.750			
0.3054	19547.46	3.9310	3.9311	0.9455	6.94	0.97	0.750			
0.3083	19730.77	3.9280	3.9280	0.9561	6.94	0.97	0.750			
0.3112	19913.76	3.9250	3.9250	0.9527	6.93	0.96	0.750			
0.3141	20100.62	3.9220	3.9220	0.9632	6.92	0.95	0.750			
0.3170	20287.39	3.9190	3.9190	0.9736	6.91	0.94	0.750			
0.3199	20473.13	3.9160	3.9161	0.9798	6.90	0.93	0.750			
0.3228	20661.92	3.9130	3.9130	0.9842	6.89	0.92	0.750			
0.3258	20851.74	3.9100	3.9100	0.9852	6.89	0.92	0.750			
0.3288	21040.14	3.9070	3.9069	0.9982	6.88	0.91	0.750			
0.3317	21231.09	3.9040	3.9042	1.0192	6.87	0.90	0.750			
0.3348	21430.05	3.9010	3.9010	1.0348	6.86	0.89	0.750			
0.3380	21633.73	3.8980	3.8980	1.0330	6.85	0.88	0.750			
0.3411	21831.95	3.8950	3.8950	1.0448	6.84	0.87	0.750			
0.3443	22033.57	3.8920	3.8922	1.0564	6.84	0.87	0.750			
0.3474	22235.21	3.8890	3.8891	1.0724	6.83	0.86	0.750			
0.3506	22440.88	3.8860	3.8859	1.0694	6.83	0.86	0.750			
0.3539	22646.92	3.8830	3.8830	1.0852	6.82	0.85	0.750			
0.3572	22858.03	3.8800	3.8802	1.1036	6.80	0.83	0.750			
0.3605	23070.03	3.8770	3.8771	1.1279	6.79	0.82	0.750			
0.3639	23288.91	3.8740	3.8740	1.1202	6.78	0.81	0.750			
0.3672	23502.63	3.8710	3.8710	1.1399	6.77	0.80	0.750			
0.3706	23721.28	3.8680	3.8681	1.1641	6.76	0.79	0.750			
0.3742	23950.23	3.8650	3.8644	1.1869	6.75	0.78	0.750			
0.3778	24176.12	3.8620	3.8621	1.1833	6.74	0.77	0.750			
0.3813	24403.52	3.8590	3.8592	1.2015	6.73	0.76	0.750			
0.3850	24638.45	3.8560	3.8561	1.2059	6.72	0.75	0.750			
0.3886	24870.68	3.8530	3.8531	1.2135	6.70	0.73	0.750			
0.3922	25100.47	3.8500	3.8502	1.2573	6.69	0.72	0.750			
0.3960	25340.99	3.8470	3.8472	1.2936	6.68	0.71	0.750			
0.4000	25599.18	3.8440	3.8437	1.3245	6.67	0.70	0.750			
0.4039	25851.42	3.8410	3.8412	1.3522	6.66	0.69	0.750	0.336	0.850	
0.4081	26118.01	3.8380	3.8382	1.3848	6.64	0.67	0.750			
0.4123	26389.29	3.8350	3.8347	1.4218	6.63	0.66	0.750			
0.4166	26662.57	3.8320	3.8321	1.4314	6.61	0.64	0.750			
0.4209	26935.36	3.8290	3.8291	1.4574	6.60	0.63	0.750			
0.4254	27223.92	3.8260	3.8261	1.4659	6.59	0.62	0.750			
0.4297	27503.29	3.8230	3.8230	1.4671	6.57	0.60	0.750			
0.4343	27792.27	3.8200	3.8202	1.4780	6.56	0.59	0.750			
0.4386	28070.30	3.8170	3.8171	1.4986	6.54	0.57	0.750			
0.4431	28355.68	3.8140	3.8141	1.5281	6.52	0.55	0.750			
0.4477	28653.16	3.8110	3.8111	1.5560	6.50	0.53	0.750			
0.4524	28955.51	3.8080	3.8082	1.5780	6.48	0.51	0.750			
0.4572	29261.41	3.8050	3.8050	1.6286	6.46	0.49	0.750			
0.4621	29574.38	3.8020	3.8019	1.6613	6.45	0.48	0.750			
0.4671	29897.05	3.7990	3.7991	1.6838	6.43	0.46	0.750			
0.4723	30227.35	3.7960	3.7962	1.7225	6.42	0.45	0.750			
0.4776	30564.27	3.7930	3.7931	1.7335	6.40	0.43	0.750			
0.4827	30890.10	3.7900	3.7901	1.7623	6.38	0.41	0.750			
0.4880	31228.89	3.7870	3.7867	1.7588	6.37	0.40	0.750			
0.4933	31569.74	3.7840	3.7838	1.7860	6.35	0.38	0.750			
0.4988	31923.27	3.7810	3.7809	1.7917	6.33	0.36	0.750			
0.5044	32279.34	3.7780	3.7783	1.8024	6.31	0.34	0.750			
0.5096	32616.65	3.7750	3.7754	1.8172	6.30	0.33	0.750			
0.5151	32967.28	3.7720	3.7722	1.8371	6.28	0.31	0.750			
0.5207	33326.88	3.7690	3.7692	1.8834	6.26	0.29	0.750			
0.5264	33692.63	3.7660	3.7660	1.8642	6.24	0.27	0.750			
0.5319	34044.41	3.7630	3.7630	1.8768	6.22	0.25	0.750			
0.5376	34406.81	3.7600	3.7600	1.8545	6.20	0.23	0.750			
0.5432	34763.11	3.7570	3.7577	1.9224	6.17	0.20	0.750			
0.5490	35136.25	3.7540	3.7542	1.9297	6.15	0.18	0.750			
0.5549	35512.26	3.7510	3.7510	2.0232	6.14	0.17	0.750			
0.5611	35908.23	3.7480	3.7479	2.0329	6.12	0.15	0.750			
0.5673	36306.23	3.7450	3.7450	2.0584	6.11	0.14	0.750			
0.5734	36700.46	3.7420	3.7422	2.1761	6.09	0.12	0.750			
0.5803	37139.96	3.7390	3.7388	2.1545	6.07	0.10	0.750			
0.5868	37555.38	3.7360	3.7364	2.2453	6.05	0.08	0.750			
0.5935	37984.59	3.7330	3.7330	2.3362	6.03	0.06	0.750			
0.6005	38432.02	3.7300	3.7300	2.2920	6.02	0.05	0.750			
0.6080	38910.72	3.7270	3.7272	2.3558	5.99	0.02	0.750			
0.6150	39357.11	3.7240	3.7243	2.2556	5.98	0.01	0.750			
0.6215	39774.40	3.7210	3.7214	2.1601	5.97	0.00	0.750			
0.6279	40186.27	3.7180	3.7182	2.0281	5.96	-0.01	0.750			
0.6338	40565.66	3.7150	3.7155	1.9419	5.95	-0.02	0.750			
0.6397	40939.72	3.7120	3.7118	1.8305	5.95	-0.02	0.750			
0.6448	41265.80	3.7090	3.7090	1.6300	5.94	-0.03	0.750			
0.6496	41572.20	3.7060	3.7061	1.4897	5.94	-0.03	0.750			
0.6538	41843.68	3.7030	3.7028	1.3511	5.94	-0.03	0.750			
0.6574	42073.08	3.7000	3.7000	1.2010	5.93	-0.04	0.750			
0.6607	42284.80	3.6970	3.6969	1.0947	5.93	-0.04	0.750			
0.6638	42485.08	3.6940	3.6941	1.0230	5.93	-0.04	0.750			
0.6667	42669.88	3.6910	3.6910	0.9605	5.93	-0.04	0.750			
0.6694	42844.15	3.6880	3.6879	0.9243	5.93	-0.04	0.750			
0.6721	43016.85	3.6850	3.6851	0.8898	5.93	-0.04	0.750			
0.6748	43185.87	3.6820	3.6821	0.8621	5.93	-0.04	0.750			
0.6773	43348.50	3.6790	3.6790	0.8335	5.93	-0.04	0.750			
0.6798	43506.61	3.6760	3.6762	0.8042	5.93	-0.04	0.750			
0.6822	43658.48	3.6730	3.6731	0.7772	5.94	-0.03	0.750			
0.6844	43804.68	3.6700	3.6699	0.7431	5.94	-0.03	0.750			
0.6866	43943.00	3.6670	3.6668	0.7152	5.94	-0.03	0.750			
0.6887	44078.58	3.6640	3.6640	0.6871	5.94	-0.03	0.750			
0.6907	44206.98	3.6610	3.6610	0.6564	5.95	-0.02	0.750			
0.6927	44331.00	3.6580	3.6580	0.6265	5.95	-0.02	0.750			
0.6945	44445.46	3.6550	3.6551	0.6075	5.96	-0.01	0.750			
0.6962	44558.40	3.6520	3.6520	0.5835	5.96	-0.01	0.750			
0.6980	44673.99	3.6490	3.6488	0.5478	5.97	-0.00	0.750			
0.6997	44778.18	3.6460	3.6457	0.5080	5.97	0.00	0.750			
0.7011	44872.77	3.6430	3.6436	0.4709	5.97	0.00	0.750			
0.7025	44959.31	3.6400	3.6400	0.4279	5.98	0.01	0.750			
0.7037	45033.96	3.6370	3.6367	0.3892	5.98	0.01	0.750			
0.7047	45098.03	3.6340	3.6339	0.3438	5.98	0.01	0.750			
0.7057	45163.96	3.6310	3.6311	0.3204	5.99	0.02	0.750			
0.7067	45226.41	3.6280	3.6279	0.2947	5.99	0.02	0.750			
0.7075	45281.70	3.6250	3.6250	0.2620	5.99	0.02	0.750			
0.7082	45327.97	3.6220	3.6221	0.2209	5.99	0.02	0.750			
0.7089	45367.51	3.6190	3.6187	0.1833	5.99	0.02	0.750			
0.7093	45397.77	3.6160	3.6160	0.1402	5.99	0.02	0.750			
0.7097	45420.11	3.6130	3.6134	0.0995	5.99	0.02	0.750			
0.7099	45433.50	3.6100	3.6108	0.0615	6.00	0.03	0.750			
0.7101	45443.98	3.6040	3.6047	-0.0311	6.00	0.03	0.750			
0.7101	45445.58	3.6070	3.5716	0.0145	6.00	0.03	0.747			
