Ah_balance (normalized)	Ah_balance (mAh)	Voltage - fit (V)	Voltage -  interpolate (V)	dQ/dV (1/V)	Temperature (°C)	Temperature - diff (°C)	Current (C)	R_DC 0ms (mOhm)	R_DC 50ms (mOhm)	R_DC 50 ms PEC (mOhm)
0.0951	6086.80	4.0090	4.0085	-0.0694	5.99	0.00	-0.750			
0.0954	6102.90	4.0060	4.0056	-0.0983	5.99	0.00	-0.750			
0.0957	6125.48	4.0030	4.0029	-0.1257	5.99	0.00	-0.750			
0.0961	6151.97	4.0000	4.0001	-0.1516	5.99	0.00	-0.750			
0.0966	6183.49	3.9970	3.9971	-0.1780	5.99	0.00	-0.750			
0.0972	6220.29	3.9940	3.9941	-0.2022	5.99	0.00	-0.750			
0.0979	6262.70	3.9910	3.9909	-0.2241	5.99	0.00	-0.750			
0.0986	6308.03	3.9880	3.9880	-0.2458	5.99	0.00	-0.750			
0.0993	6357.30	3.9850	3.9851	-0.2674	5.99	0.00	-0.750			
0.1002	6410.56	3.9820	3.9820	-0.2911	5.99	0.00	-0.750			
0.1010	6467.01	3.9790	3.9790	-0.3297	5.99	0.00	-0.750			
0.1021	6531.80	3.9760	3.9760	-0.3617	5.99	0.00	-0.750			
0.1032	6604.96	3.9730	3.9727	-0.3899	5.99	0.00	-0.750			
0.1045	6685.40	3.9700	3.9702	-0.4134	5.99	0.00	-0.750			
0.1058	6770.44	3.9670	3.9672	-0.4356	5.99	0.00	-0.750			
0.1071	6857.52	3.9640	3.9640	-0.4458	5.99	0.00	-0.750			
0.1085	6941.54	3.9610	3.9613	-0.4620	5.99	0.00	-0.750			
0.1098	7028.37	3.9580	3.9580	-0.4772	5.99	-0.00	-0.750			
0.1113	7120.37	3.9550	3.9551	-0.5017	5.99	-0.00	-0.750			
0.1128	7220.20	3.9520	3.9518	-0.5242	5.98	-0.01	-0.750			
0.1145	7326.05	3.9490	3.9491	-0.5466	5.98	-0.01	-0.750			
0.1161	7432.62	3.9460	3.9461	-0.5675	5.98	-0.01	-0.750			
0.1179	7546.02	3.9430	3.9430	-0.5850	5.98	-0.01	-0.750			
0.1196	7657.56	3.9400	3.9398	-0.5930	5.97	-0.02	-0.750			
0.1214	7772.13	3.9370	3.9372	-0.6055	5.97	-0.02	-0.750			
0.1233	7889.60	3.9340	3.9339	-0.6184	5.97	-0.02	-0.750			
0.1252	8010.25	3.9310	3.9310	-0.6320	5.98	-0.01	-0.750			
0.1271	8134.79	3.9280	3.9280	-0.6407	5.98	-0.01	-0.750			
0.1290	8258.57	3.9250	3.9250	-0.6497	5.98	-0.01	-0.750			
0.1310	8384.52	3.9220	3.9220	-0.6584	5.99	-0.00	-0.750			
0.1330	8511.27	3.9190	3.9191	-0.6625	5.99	-0.00	-0.750			
0.1350	8638.86	3.9160	3.9158	-0.6711	5.99	0.00	-0.750			
0.1370	8768.08	3.9130	3.9130	-0.6778	6.00	0.01	-0.750			
0.1390	8898.47	3.9100	3.9100	-0.6870	6.00	0.01	-0.750			
0.1411	9031.34	3.9070	3.9071	-0.6969	6.00	0.01	-0.750			
0.1432	9166.64	3.9040	3.9039	-0.7038	6.01	0.02	-0.750			
0.1454	9303.49	3.9010	3.9009	-0.7094	6.01	0.02	-0.750			
0.1475	9441.64	3.8980	3.8980	-0.7133	6.01	0.02	-0.750			
0.1497	9578.51	3.8950	3.8950	-0.7113	6.02	0.03	-0.750			
0.1518	9715.20	3.8920	3.8921	-0.7165	6.02	0.03	-0.750			
0.1539	9851.70	3.8890	3.8890	-0.7202	6.03	0.04	-0.750			
0.1561	9990.45	3.8860	3.8860	-0.7216	6.03	0.04	-0.750			
0.1583	10129.60	3.8830	3.8830	-0.7257	6.04	0.05	-0.750			
0.1605	10270.18	3.8800	3.8800	-0.7322	6.04	0.05	-0.750			
0.1627	10411.45	3.8770	3.8770	-0.7333	6.05	0.06	-0.750			
0.1649	10552.41	3.8740	3.8740	-0.7358	6.06	0.07	-0.750			
0.1671	10693.00	3.8710	3.8710	-0.7359	6.06	0.07	-0.750			
0.1693	10834.88	3.8680	3.8680	-0.7383	6.07	0.08	-0.750			
0.1715	10977.68	3.8650	3.8651	-0.7425	6.07	0.08	-0.750			
0.1737	11119.96	3.8620	3.8620	-0.7449	6.08	0.09	-0.750			
0.1760	11263.34	3.8590	3.8590	-0.7474	6.09	0.10	-0.750			
0.1782	11407.36	3.8560	3.8560	-0.7490	6.09	0.10	-0.750			
0.1805	11551.78	3.8530	3.8530	-0.7512	6.10	0.11	-0.750			
0.1827	11695.65	3.8500	3.8500	-0.7518	6.11	0.12	-0.750			
0.1850	11840.56	3.8470	3.8470	-0.7519	6.11	0.12	-0.750			
0.1873	11984.60	3.8440	3.8440	-0.7496	6.12	0.13	-0.750			
0.1895	12127.52	3.8410	3.8410	-0.7518	6.12	0.13	-0.750			
0.1918	12272.71	3.8380	3.8380	-0.7529	6.12	0.13	-0.750			
0.1940	12418.44	3.8350	3.8349	-0.7538	6.13	0.14	-0.750			
0.1963	12563.53	3.8320	3.8321	-0.7520	6.13	0.14	-0.750			
0.1986	12707.63	3.8290	3.8290	-0.7522	6.14	0.15	-0.750			
0.2008	12851.42	3.8260	3.8260	-0.7560	6.15	0.16	-0.750			
0.2031	12996.60	3.8230	3.8230	-0.7586	6.16	0.17	-0.750			
0.2053	13141.73	3.8200	3.8199	-0.7588	6.17	0.18	-0.750			
0.2076	13288.00	3.8170	3.8171	-0.7637	6.19	0.20	-0.750			
0.2099	13436.46	3.8140	3.8141	-0.7652	6.19	0.20	-0.750			
0.2122	13582.97	3.8110	3.8109	-0.7661	6.20	0.21	-0.750			
0.2145	13730.04	3.8080	3.8080	-0.7617	6.21	0.22	-0.750			
0.2168	13875.36	3.8050	3.8050	-0.7597	6.22	0.23	-0.750			
0.2191	14021.28	3.8020	3.8020	-0.7620	6.22	0.23	-0.750			
0.2214	14168.27	3.7990	3.7991	-0.7611	6.23	0.24	-0.750			
0.2236	14313.42	3.7960	3.7959	-0.7601	6.24	0.25	-0.750			
0.2259	14459.40	3.7930	3.7931	-0.7642	6.24	0.25	-0.750			
0.2282	14605.88	3.7900	3.7900	-0.7648	6.25	0.26	-0.750			
0.2305	14753.73	3.7870	3.7870	-0.7689	6.25	0.26	-0.750			
0.2328	14901.62	3.7840	3.7840	-0.7682	6.26	0.27	-0.750			
0.2351	15048.67	3.7810	3.7810	-0.7685	6.26	0.27	-0.750			
0.2375	15196.95	3.7780	3.7780	-0.7705	6.27	0.28	-0.750			
0.2397	15343.81	3.7750	3.7751	-0.7712	6.28	0.29	-0.750			
0.2421	15492.00	3.7720	3.7720	-0.7704	6.29	0.30	-0.750			
0.2444	15640.48	3.7690	3.7690	-0.7726	6.29	0.30	-0.750			
0.2467	15788.92	3.7660	3.7660	-0.7729	6.30	0.31	-0.750			
0.2490	15936.77	3.7630	3.7630	-0.7745	6.31	0.32	-0.750			
0.2513	16086.38	3.7600	3.7600	-0.7758	6.32	0.33	-0.750			
0.2537	16235.51	3.7570	3.7570	-0.7759	6.32	0.33	-0.750			
0.2560	16384.28	3.7540	3.7540	-0.7781	6.33	0.34	-0.750			
0.2583	16534.07	3.7510	3.7511	-0.7839	6.34	0.35	-0.750			
0.2607	16684.96	3.7480	3.7479	-0.7858	6.35	0.36	-0.750			
0.2631	16835.56	3.7450	3.7450	-0.7934	6.36	0.37	-0.750			
0.2654	16987.89	3.7420	3.7420	-0.7973	6.37	0.38	-0.750			
0.2678	17142.34	3.7390	3.7391	-0.8021	6.38	0.39	-0.750			
0.2703	17297.85	3.7360	3.7360	-0.8076	6.39	0.40	-0.750			
0.2727	17453.30	3.7330	3.7330	-0.8082	6.40	0.41	-0.750			
0.2751	17607.30	3.7300	3.7300	-0.8162	6.40	0.41	-0.750			
0.2776	17765.30	3.7270	3.7270	-0.8208	6.41	0.42	-0.750			
0.2800	17922.39	3.7240	3.7240	-0.8238	6.42	0.43	-0.750			
0.2825	18082.93	3.7210	3.7209	-0.8315	6.43	0.44	-0.750			
0.2851	18243.37	3.7180	3.7179	-0.8347	6.43	0.44	-0.750			
0.2875	18403.16	3.7150	3.7150	-0.8440	6.44	0.45	-0.750			
0.2901	18566.57	3.7120	3.7120	-0.8490	6.45	0.46	-0.750			
0.2926	18728.50	3.7090	3.7089	-0.8507	6.45	0.46	-0.750			
0.2952	18894.18	3.7060	3.7059	-0.8628	6.46	0.47	-0.750			
0.2978	19059.60	3.7030	3.7030	-0.8731	6.46	0.47	-0.750			
0.3004	19228.41	3.7000	3.6999	-0.8808	6.47	0.48	-0.750			
0.3031	19399.47	3.6970	3.6970	-0.8836	6.47	0.48	-0.750			
0.3057	19567.13	3.6940	3.6941	-0.8891	6.48	0.49	-0.750			
0.3085	19741.47	3.6910	3.6911	-0.9032	6.48	0.49	-0.750			
0.3112	19913.69	3.6880	3.6879	-0.9155	6.49	0.50	-0.750			
0.3139	20091.53	3.6850	3.6849	-0.9162	6.50	0.51	-0.750			
0.3167	20267.41	3.6820	3.6820	-0.9254	6.51	0.52	-0.750			
0.3195	20446.42	3.6790	3.6791	-0.9366	6.52	0.53	-0.750			
0.3223	20629.07	3.6760	3.6760	-0.9492	6.53	0.54	-0.750			
0.3252	20811.05	3.6730	3.6728	-0.9578	6.54	0.55	-0.750			
0.3280	20994.40	3.6700	3.6700	-0.9680	6.54	0.55	-0.750			
0.3310	21181.42	3.6670	3.6670	-0.9798	6.55	0.56	-0.750			
0.3339	21372.39	3.6640	3.6641	-0.9947	6.55	0.56	-0.750			
0.3369	21563.27	3.6610	3.6610	-1.0001	6.56	0.57	-0.750			
0.3399	21756.67	3.6580	3.6580	-1.0114	6.56	0.57	-0.750			
0.3430	21952.15	3.6550	3.6549	-1.0172	6.57	0.58	-0.750			
0.3461	22148.41	3.6520	3.6522	-1.0351	6.57	0.58	-0.750			
0.3492	22346.88	3.6490	3.6491	-1.0447	6.57	0.58	-0.750			
0.3523	22549.99	3.6460	3.6459	-1.0553	6.58	0.59	-0.750			
0.3555	22754.02	3.6430	3.6429	-1.0640	6.59	0.60	-0.750			
0.3587	22957.78	3.6400	3.6401	-1.0764	6.59	0.60	-0.750			
0.3620	23165.38	3.6370	3.6371	-1.0872	6.60	0.61	-0.750			
0.3653	23376.93	3.6340	3.6339	-1.1001	6.61	0.62	-0.750			
0.3686	23587.26	3.6310	3.6310	-1.1064	6.62	0.63	-0.750			
0.3719	23800.46	3.6280	3.6281	-1.1219	6.63	0.64	-0.750			
0.3753	24017.82	3.6250	3.6251	-1.1356	6.64	0.65	-0.750			
0.3787	24238.50	3.6220	3.6219	-1.1441	6.64	0.65	-0.750			
0.3822	24457.98	3.6190	3.6189	-1.1531	6.65	0.66	-0.750			
0.3856	24680.72	3.6160	3.6160	-1.1688	6.65	0.66	-0.750			
0.3892	24907.19	3.6130	3.6130	-1.1768	6.65	0.66	-0.750			
0.3927	25134.65	3.6100	3.6099	-1.1866	6.65	0.66	-0.750			
0.3963	25361.50	3.6070	3.6072	-1.2005	6.65	0.66	-0.750			
0.3999	25594.19	3.6040	3.6040	-1.2223	6.66	0.67	-0.750			
0.4036	25831.02	3.6010	3.6009	-1.2384	6.66	0.67	-0.750			
0.4073	26069.67	3.5980	3.5980	-1.2499	6.67	0.68	-0.750			
0.4111	26313.48	3.5950	3.5950	-1.2637	6.67	0.68	-0.750	0.460	1.046	
0.4150	26557.76	3.5920	3.5920	-1.2700	6.68	0.69	-0.750			
0.4187	26798.49	3.5890	3.5890	-1.2859	6.68	0.69	-0.750			
0.4226	27045.56	3.5860	3.5860	-1.2954	6.68	0.69	-0.750			
0.4265	27296.95	3.5830	3.5829	-1.3017	6.69	0.70	-0.750			
0.4305	27549.48	3.5800	3.5799	-1.3182	6.70	0.71	-0.750			
0.4344	27803.61	3.5770	3.5772	-1.3403	6.71	0.72	-0.750			
0.4385	28064.61	3.5740	3.5739	-1.3541	6.71	0.72	-0.750			
0.4426	28325.51	3.5710	3.5709	-1.3642	6.71	0.72	-0.750			
0.4467	28586.13	3.5680	3.5682	-1.3840	6.71	0.72	-0.750			
0.4509	28857.21	3.5650	3.5649	-1.4018	6.72	0.73	-0.750			
0.4551	29126.83	3.5620	3.5619	-1.4165	6.72	0.73	-0.750			
0.4594	29400.05	3.5590	3.5591	-1.4324	6.73	0.74	-0.750			
0.4637	29679.09	3.5560	3.5559	-1.4522	6.73	0.74	-0.750			
0.4681	29957.69	3.5530	3.5529	-1.4779	6.73	0.74	-0.750			
0.4726	30243.47	3.5500	3.5501	-1.4897	6.73	0.74	-0.750			
0.4771	30533.31	3.5470	3.5469	-1.5024	6.75	0.76	-0.750			
0.4816	30824.82	3.5440	3.5440	-1.5160	6.76	0.77	-0.750			
0.4862	31115.98	3.5410	3.5410	-1.5206	6.77	0.78	-0.750			
0.4908	31411.98	3.5380	3.5379	-1.5367	6.77	0.78	-0.750			
0.4954	31706.40	3.5350	3.5349	-1.5431	6.77	0.78	-0.750			
0.5000	32000.99	3.5320	3.5321	-1.5559	6.78	0.79	-0.750			
0.5048	32304.97	3.5290	3.5288	-1.5631	6.78	0.79	-0.750			
0.5095	32605.31	3.5260	3.5260	-1.5755	6.79	0.80	-0.750			
0.5142	32907.55	3.5230	3.5232	-1.5860	6.80	0.81	-0.750			
0.5189	33212.21	3.5200	3.5199	-1.5866	6.81	0.82	-0.750			
0.5238	33521.32	3.5170	3.5168	-1.5838	6.81	0.82	-0.750			
0.5285	33826.33	3.5140	3.5140	-1.5881	6.82	0.83	-0.750			
0.5333	34133.31	3.5110	3.5112	-1.5946	6.83	0.84	-0.750			
0.5381	34437.51	3.5080	3.5078	-1.5892	6.84	0.85	-0.750			
0.5428	34739.92	3.5050	3.5052	-1.5903	6.84	0.85	-0.750			
0.5476	35047.15	3.5020	3.5020	-1.6061	6.85	0.86	-0.750			
0.5524	35356.61	3.4990	3.4989	-1.5996	6.87	0.88	-0.750			
0.5573	35668.70	3.4960	3.4961	-1.6023	6.89	0.90	-0.750			
0.5621	35974.25	3.4930	3.4930	-1.5958	6.90	0.91	-0.750			
0.5669	36282.68	3.4900	3.4898	-1.5841	6.90	0.91	-0.750			
0.5716	36584.07	3.4870	3.4871	-1.5681	6.91	0.92	-0.750			
0.5763	36880.33	3.4840	3.4840	-1.5711	6.92	0.93	-0.750			
0.5810	37185.58	3.4810	3.4811	-1.5620	6.93	0.94	-0.750			
0.5857	37483.55	3.4780	3.4780	-1.5599	6.95	0.96	-0.750			
0.5904	37786.14	3.4750	3.4750	-1.5525	6.96	0.97	-0.750			
0.5951	38085.13	3.4720	3.4719	-1.5347	6.97	0.98	-0.750			
0.5997	38380.56	3.4690	3.4689	-1.5185	6.98	0.99	-0.750			
0.6042	38670.22	3.4660	3.4658	-1.4966	7.00	1.01	-0.750			
0.6086	38951.97	3.4630	3.4632	-1.4765	7.01	1.02	-0.750			
0.6131	39235.49	3.4600	3.4600	-1.4653	7.02	1.03	-0.750			
0.6174	39513.72	3.4570	3.4569	-1.4495	7.04	1.05	-0.750			
0.6218	39795.24	3.4540	3.4541	-1.4503	7.05	1.06	-0.750			
0.6262	40076.63	3.4510	3.4509	-1.4392	7.07	1.08	-0.750			
0.6304	40346.77	3.4480	3.4480	-1.4221	7.08	1.09	-0.750			
0.6347	40620.62	3.4450	3.4452	-1.4047	7.09	1.10	-0.750			
0.6389	40891.98	3.4420	3.4419	-1.3794	7.11	1.12	-0.750			
0.6430	41152.45	3.4390	3.4389	-1.3527	7.12	1.13	-0.750			
0.6470	41406.14	3.4360	3.4362	-1.3255	7.13	1.14	-0.750			
0.6510	41663.18	3.4330	3.4329	-1.3109	7.15	1.16	-0.750			
0.6549	41913.19	3.4300	3.4299	-1.2871	7.17	1.18	-0.750			
0.6587	42154.72	3.4270	3.4272	-1.2582	7.18	1.19	-0.750			
0.6624	42396.64	3.4240	3.4239	-1.2404	7.20	1.21	-0.750			
0.6661	42633.45	3.4210	3.4210	-1.2146	7.22	1.23	-0.750			
0.6697	42862.55	3.4180	3.4179	-1.1836	7.24	1.25	-0.750			
0.6733	43089.93	3.4150	3.4150	-1.1615	7.26	1.27	-0.750			
0.6767	43311.02	3.4120	3.4120	-1.1291	7.27	1.28	-0.750			
0.6800	43522.51	3.4090	3.4090	-1.1002	7.28	1.29	-0.750			
0.6833	43729.25	3.4060	3.4061	-1.0682	7.29	1.30	-0.750			
0.6865	43932.89	3.4030	3.4029	-1.0471	7.30	1.31	-0.750			
0.6896	44131.22	3.4000	3.4000	-1.0216	7.32	1.33	-0.750			
0.6926	44325.70	3.3970	3.3970	-0.9937	7.33	1.34	-0.750			
0.6955	44514.56	3.3940	3.3939	-0.9668	7.35	1.36	-0.750			
0.6984	44697.85	3.3910	3.3911	-0.9453	7.36	1.37	-0.750			
0.7012	44876.20	3.3880	3.3880	-0.9169	7.38	1.39	-0.750			
0.7039	45049.76	3.3850	3.3849	-0.8869	7.40	1.41	-0.750			
0.7065	45217.00	3.3820	3.3819	-0.8593	7.42	1.43	-0.750			
0.7090	45379.10	3.3790	3.3792	-0.8377	7.43	1.44	-0.750			
0.7115	45537.85	3.3760	3.3758	-0.8139	7.44	1.45	-0.750			
0.7139	45691.41	3.3730	3.3730	-0.7924	7.45	1.46	-0.750			
0.7163	45840.94	3.3700	3.3701	-0.7691	7.46	1.47	-0.750			
0.7185	45987.05	3.3670	3.3670	-0.7509	7.47	1.48	-0.750			
0.7208	46129.83	3.3640	3.3640	-0.7297	7.48	1.49	-0.750			
0.7229	46266.08	3.3610	3.3610	-0.7079	7.49	1.50	-0.750			
0.7250	46399.20	3.3580	3.3580	-0.6884	7.50	1.51	-0.750			
0.7270	46529.54	3.3550	3.3550	-0.6708	7.50	1.51	-0.750			
0.7290	46655.88	3.3520	3.3519	-0.6556	7.51	1.52	-0.750			
0.7310	46780.82	3.3490	3.3491	-0.6393	7.52	1.53	-0.750			
0.7328	46902.18	3.3460	3.3460	-0.6260	7.53	1.54	-0.750			
