Ah_balance (normalized)	Ah_balance (mAh)	Voltage - fit (V)	Voltage -  interpolate (V)	dQ/dV (1/V)	Temperature (°C)	Temperature - diff (°C)	Current (C)	R_DC 0ms (mOhm)	R_DC 50ms (mOhm)	R_DC 50 ms PEC (mOhm)
0.1816	11621.46	4.0800	4.0799	0.7597	7.55	1.58	0.750			
0.1839	11770.86	4.0770	4.0769	0.7759	7.54	1.57	0.750			
0.1863	11920.75	4.0740	4.0740	0.7725	7.53	1.56	0.750			
0.1885	12066.76	4.0710	4.0711	0.7741	7.52	1.55	0.750			
0.1909	12215.48	4.0680	4.0680	0.7782	7.51	1.54	0.750			
0.1932	12363.55	4.0650	4.0649	0.7803	7.50	1.53	0.750			
0.1955	12514.16	4.0620	4.0621	0.7827	7.50	1.53	0.750			
0.1979	12668.24	4.0590	4.0590	0.7818	7.49	1.52	0.750			
0.2003	12817.14	4.0560	4.0560	0.7884	7.49	1.52	0.750			
0.2026	12968.09	4.0530	4.0531	0.7924	7.48	1.51	0.750			
0.2050	13117.90	4.0500	4.0501	0.7942	7.47	1.50	0.750			
0.2074	13271.08	4.0470	4.0468	0.7979	7.47	1.50	0.750			
0.2098	13426.55	4.0440	4.0441	0.7999	7.46	1.49	0.750			
0.2122	13581.82	4.0410	4.0410	0.8091	7.45	1.48	0.750			
0.2147	13737.65	4.0380	4.0381	0.8106	7.44	1.47	0.750			
0.2171	13892.39	4.0350	4.0350	0.8064	7.44	1.47	0.750			
0.2195	14046.81	4.0320	4.0319	0.8092	7.43	1.46	0.750			
0.2219	14202.32	4.0290	4.0291	0.8160	7.43	1.46	0.750			
0.2244	14361.10	4.0260	4.0260	0.8145	7.42	1.45	0.750			
0.2268	14515.32	4.0230	4.0230	0.8208	7.42	1.45	0.750			
0.2292	14671.42	4.0200	4.0201	0.8238	7.41	1.44	0.750			
0.2317	14831.94	4.0170	4.0165	0.8269	7.41	1.44	0.750			
0.2342	14991.12	4.0140	4.0141	0.8336	7.40	1.43	0.750			
0.2367	15151.32	4.0110	4.0111	0.8350	7.39	1.42	0.750			
0.2393	15312.67	4.0080	4.0080	0.8402	7.39	1.42	0.750			
0.2418	15473.98	4.0050	4.0050	0.8372	7.38	1.41	0.750			
0.2443	15634.43	4.0020	4.0016	0.8428	7.37	1.40	0.750			
0.2468	15797.59	3.9990	3.9991	0.8478	7.36	1.39	0.750			
0.2494	15962.23	3.9960	3.9960	0.8516	7.35	1.38	0.750			
0.2520	16125.04	3.9930	3.9930	0.8536	7.35	1.38	0.750			
0.2545	16289.42	3.9900	3.9900	0.8603	7.34	1.37	0.750			
0.2571	16453.44	3.9870	3.9870	0.8608	7.33	1.36	0.750			
0.2597	16620.82	3.9840	3.9839	0.8588	7.32	1.35	0.750			
0.2623	16785.17	3.9810	3.9810	0.8611	7.31	1.34	0.750			
0.2648	16949.90	3.9780	3.9782	0.8707	7.30	1.33	0.750			
0.2675	17117.76	3.9750	3.9750	0.8749	7.30	1.33	0.750			
0.2701	17286.04	3.9720	3.9720	0.8756	7.29	1.32	0.750			
0.2727	17455.91	3.9690	3.9691	0.8753	7.28	1.31	0.750			
0.2754	17622.82	3.9660	3.9661	0.8911	7.27	1.30	0.750			
0.2780	17795.06	3.9630	3.9630	0.8985	7.26	1.29	0.750			
0.2807	17966.92	3.9600	3.9598	0.9000	7.25	1.28	0.750			
0.2835	18141.22	3.9570	3.9571	0.9041	7.24	1.27	0.750			
0.2862	18317.60	3.9540	3.9541	0.9129	7.23	1.26	0.750			
0.2890	18493.39	3.9510	3.9510	0.9181	7.22	1.25	0.750			
0.2917	18670.10	3.9480	3.9480	0.9243	7.20	1.23	0.750			
0.2944	18844.39	3.9450	3.9450	0.9259	7.19	1.22	0.750			
0.2973	19026.63	3.9420	3.9420	0.9293	7.18	1.21	0.750			
0.3001	19205.86	3.9390	3.9390	0.9367	7.17	1.20	0.750			
0.3029	19386.41	3.9360	3.9361	0.9396	7.16	1.19	0.750			
0.3057	19566.32	3.9330	3.9330	0.9440	7.15	1.18	0.750			
0.3086	19747.77	3.9300	3.9300	0.9471	7.14	1.17	0.750			
0.3114	19927.68	3.9270	3.9271	0.9539	7.13	1.16	0.750			
0.3142	20111.91	3.9240	3.9240	0.9675	7.11	1.14	0.750			
0.3172	20301.32	3.9210	3.9211	0.9828	7.10	1.13	0.750			
0.3202	20490.17	3.9180	3.9180	0.9863	7.09	1.12	0.750			
0.3231	20680.72	3.9150	3.9151	0.9973	7.08	1.11	0.750			
0.3261	20872.99	3.9120	3.9120	1.0048	7.07	1.10	0.750			
0.3292	21067.48	3.9090	3.9090	1.0130	7.06	1.09	0.750			
0.3323	21264.05	3.9060	3.9060	1.0125	7.05	1.08	0.750			
0.3353	21457.31	3.9030	3.9030	1.0234	7.03	1.06	0.750			
0.3383	21653.95	3.9000	3.9001	1.0363	7.02	1.05	0.750			
0.3415	21853.42	3.8970	3.8970	1.0511	7.00	1.03	0.750			
0.3446	22057.51	3.8940	3.8938	1.0567	6.99	1.02	0.750			
0.3478	22261.72	3.8910	3.8911	1.0703	6.98	1.01	0.750			
0.3511	22467.65	3.8880	3.8881	1.0881	6.97	1.00	0.750			
0.3543	22678.07	3.8850	3.8850	1.1028	6.96	0.99	0.750			
0.3577	22890.05	3.8820	3.8819	1.1068	6.95	0.98	0.750			
0.3610	23105.51	3.8790	3.8790	1.1231	6.93	0.96	0.750			
0.3644	23323.30	3.8760	3.8760	1.1356	6.91	0.94	0.750			
0.3679	23543.03	3.8730	3.8730	1.1532	6.90	0.93	0.750			
0.3713	23765.00	3.8700	3.8701	1.1569	6.88	0.91	0.750			
0.3748	23986.10	3.8670	3.8669	1.1654	6.87	0.90	0.750			
0.3783	24210.90	3.8640	3.8641	1.1837	6.86	0.89	0.750			
0.3819	24439.66	3.8610	3.8609	1.1915	6.85	0.88	0.750			
0.3854	24667.32	3.8580	3.8581	1.2141	6.84	0.87	0.750			
0.3891	24903.33	3.8550	3.8550	1.2433	6.83	0.86	0.750			
0.3929	25144.33	3.8520	3.8520	1.2541	6.81	0.84	0.750			
0.3967	25389.38	3.8490	3.8489	1.2712	6.80	0.83	0.750			
0.4005	25629.08	3.8460	3.8462	1.3015	6.78	0.81	0.750			
0.4044	25882.10	3.8430	3.8431	1.3287	6.76	0.79	0.750			
0.4085	26141.12	3.8400	3.8399	1.3585	6.74	0.77	0.750			
0.4125	26400.62	3.8370	3.8374	1.3985	6.73	0.76	0.750	0.410	0.932	
0.4168	26676.99	3.8340	3.8342	1.4157	6.72	0.75	0.750			
0.4213	26962.83	3.8310	3.8311	1.4454	6.70	0.73	0.750			
0.4256	27235.27	3.8280	3.8281	1.4785	6.68	0.71	0.750			
0.4299	27513.66	3.8250	3.8251	1.4906	6.67	0.70	0.750			
0.4344	27800.61	3.8220	3.8218	1.5197	6.65	0.68	0.750			
0.4390	28098.37	3.8190	3.8193	1.5661	6.63	0.66	0.750			
0.4438	28402.97	3.8160	3.8160	1.5934	6.61	0.64	0.750			
0.4487	28716.13	3.8130	3.8132	1.6072	6.59	0.62	0.750			
0.4535	29025.56	3.8100	3.8101	1.6332	6.57	0.60	0.750			
0.4585	29346.96	3.8070	3.8073	1.6666	6.55	0.58	0.750			
0.4634	29660.18	3.8040	3.8038	1.6608	6.54	0.57	0.750			
0.4685	29981.21	3.8010	3.8009	1.7219	6.52	0.55	0.750			
0.4737	30314.65	3.7980	3.7981	1.7420	6.51	0.54	0.750			
0.4791	30662.79	3.7950	3.7950	1.8118	6.50	0.53	0.750			
0.4846	31017.16	3.7920	3.7921	1.8397	6.48	0.51	0.750			
0.4902	31373.03	3.7890	3.7890	1.8632	6.45	0.48	0.750			
0.4957	31721.96	3.7860	3.7861	1.8843	6.43	0.46	0.750			
0.5014	32086.43	3.7830	3.7831	1.8820	6.41	0.44	0.750			
0.5070	32446.71	3.7800	3.7801	1.9111	6.39	0.42	0.750			
0.5129	32824.62	3.7770	3.7768	1.9318	6.37	0.40	0.750			
0.5186	33188.51	3.7740	3.7740	1.9527	6.35	0.38	0.750			
0.5245	33566.35	3.7710	3.7709	1.9679	6.33	0.36	0.750			
0.5305	33950.92	3.7680	3.7681	2.0158	6.30	0.33	0.750			
0.5366	34342.90	3.7650	3.7651	2.0136	6.29	0.32	0.750			
0.5427	34735.07	3.7620	3.7618	2.0399	6.27	0.30	0.750			
0.5487	35118.63	3.7590	3.7591	2.0285	6.25	0.28	0.750			
0.5548	35509.27	3.7560	3.7560	2.0633	6.23	0.26	0.750			
0.5610	35904.19	3.7530	3.7529	2.1481	6.20	0.23	0.750			
0.5676	36329.11	3.7500	3.7499	2.1921	6.18	0.21	0.750			
0.5744	36759.37	3.7470	3.7471	2.2573	6.16	0.19	0.750			
0.5812	37195.24	3.7440	3.7438	2.2841	6.14	0.17	0.750			
0.5879	37627.96	3.7410	3.7410	2.3422	6.13	0.16	0.750			
0.5952	38091.45	3.7380	3.7381	2.4210	6.11	0.14	0.750			
0.6025	38562.18	3.7350	3.7351	2.4609	6.08	0.11	0.750			
0.6099	39034.88	3.7320	3.7319	2.4642	6.06	0.09	0.750			
0.6173	39508.87	3.7290	3.7290	2.4992	6.04	0.07	0.750			
0.6249	39993.76	3.7260	3.7259	2.5482	6.02	0.05	0.750			
0.6325	40482.18	3.7230	3.7232	2.5461	6.01	0.04	0.750			
0.6404	40986.71	3.7200	3.7200	2.4248	6.00	0.03	0.750			
0.6473	41424.95	3.7170	3.7172	2.1899	5.99	0.02	0.750			
0.6535	41826.47	3.7140	3.7142	2.0267	5.98	0.01	0.750			
0.6593	42192.57	3.7110	3.7111	1.8458	5.97	-0.00	0.750			
0.6646	42535.62	3.7080	3.7079	1.6834	5.96	-0.01	0.750			
0.6695	42846.01	3.7050	3.7051	1.5199	5.95	-0.02	0.750			
0.6738	43126.14	3.7020	3.7020	1.3748	5.95	-0.02	0.750			
0.6775	43362.75	3.6990	3.6990	1.2316	5.95	-0.02	0.750			
0.6809	43578.36	3.6960	3.6959	1.1097	5.95	-0.02	0.750			
0.6840	43779.10	3.6930	3.6930	1.0238	5.95	-0.02	0.750			
0.6869	43960.98	3.6900	3.6901	0.9691	5.95	-0.02	0.750			
0.6897	44138.39	3.6870	3.6870	0.9231	5.94	-0.03	0.750			
0.6924	44312.84	3.6840	3.6840	0.8908	5.94	-0.03	0.750			
0.6950	44479.35	3.6810	3.6809	0.8589	5.94	-0.03	0.750			
0.6975	44641.28	3.6780	3.6782	0.8344	5.94	-0.03	0.750			
0.7000	44800.70	3.6750	3.6750	0.8035	5.94	-0.03	0.750			
0.7024	44953.45	3.6720	3.6719	0.7692	5.95	-0.02	0.750			
0.7046	45095.37	3.6690	3.6691	0.7247	5.95	-0.02	0.750			
0.7068	45232.98	3.6660	3.6658	0.6917	5.95	-0.02	0.750			
0.7088	45363.40	3.6630	3.6631	0.6583	5.95	-0.02	0.750			
0.7107	45485.67	3.6600	3.6599	0.6184	5.96	-0.01	0.750			
0.7125	45599.72	3.6570	3.6570	0.5787	5.96	-0.01	0.750			
0.7142	45708.64	3.6540	3.6540	0.5443	5.96	-0.01	0.750			
0.7158	45809.13	3.6510	3.6510	0.5091	5.96	-0.01	0.750			
0.7172	45903.29	3.6480	3.6480	0.4719	5.97	-0.00	0.750			
0.7186	45989.42	3.6450	3.6449	0.4363	5.97	-0.00	0.750			
0.7198	46069.34	3.6420	3.6421	0.4015	5.97	0.00	0.750			
0.7210	46144.08	3.6390	3.6389	0.3675	5.97	0.00	0.750			
0.7220	46211.15	3.6360	3.6360	0.3321	5.97	0.00	0.750			
0.7230	46271.42	3.6330	3.6330	0.2977	5.98	0.01	0.750			
0.7238	46324.96	3.6300	3.6300	0.2628	5.98	0.01	0.750			
0.7246	46373.25	3.6270	3.6268	0.2259	5.98	0.01	0.750			
0.7252	46412.83	3.6240	3.6239	0.1877	5.98	0.01	0.750			
0.7257	46446.16	3.6210	3.6212	0.1518	5.98	0.01	0.750			
0.7261	46473.44	3.6180	3.6182	0.1150	5.98	0.01	0.750			
0.7264	46491.46	3.6150	3.6154	0.0728	5.98	0.01	0.750			
0.7266	46502.57	3.6120	3.6111	0.0276	5.98	0.01	0.750			
0.7266	46503.52	3.6090	3.6096	-0.0176	5.98	0.01	0.750			
