Ah_balance (normalized)	Ah_balance (mAh)	Voltage - fit (V)	Voltage -  interpolate (V)	dQ/dV (1/V)	Temperature (°C)	Temperature - diff (°C)	Current (C)	R_DC 0ms (mOhm)	R_DC 50ms (mOhm)	R_DC 50 ms PEC (mOhm)
0.1751	11207.80	4.0820	4.0820	0.8023	7.84	1.87	0.750			
0.1775	11360.02	4.0790	4.0790	0.7900	7.84	1.87	0.750			
0.1799	11512.77	4.0760	4.0760	0.7854	7.83	1.86	0.750			
0.1822	11661.25	4.0730	4.0731	0.7791	7.82	1.85	0.750			
0.1845	11809.89	4.0700	4.0700	0.7771	7.82	1.85	0.750			
0.1868	11957.17	4.0670	4.0670	0.7784	7.81	1.84	0.750			
0.1892	12105.72	4.0640	4.0639	0.7812	7.81	1.84	0.750			
0.1915	12255.65	4.0610	4.0610	0.7877	7.80	1.83	0.750			
0.1939	12407.86	4.0580	4.0580	0.7905	7.79	1.82	0.750			
0.1963	12561.61	4.0550	4.0550	0.7968	7.78	1.81	0.750			
0.1987	12717.21	4.0520	4.0520	0.7904	7.78	1.81	0.750			
0.2011	12869.76	4.0490	4.0489	0.7843	7.77	1.80	0.750			
0.2034	13017.64	4.0460	4.0461	0.7822	7.76	1.79	0.750			
0.2058	13168.20	4.0430	4.0431	0.7707	7.75	1.78	0.750			
0.2080	13312.08	4.0400	4.0399	0.7833	7.75	1.78	0.750			
0.2103	13461.86	4.0370	4.0370	0.7965	7.74	1.77	0.750			
0.2127	13613.70	4.0340	4.0339	0.8094	7.73	1.76	0.750			
0.2152	13773.17	4.0310	4.0312	0.8218	7.73	1.76	0.750			
0.2178	13937.15	4.0280	4.0280	0.8223	7.72	1.75	0.750			
0.2202	14095.07	4.0250	4.0251	0.8289	7.71	1.74	0.750			
0.2227	14255.76	4.0220	4.0220	0.8364	7.71	1.74	0.750			
0.2252	14413.35	4.0190	4.0188	0.8284	7.70	1.73	0.750			
0.2277	14572.68	4.0160	4.0161	0.8326	7.70	1.73	0.750			
0.2302	14735.16	4.0130	4.0131	0.8226	7.69	1.72	0.750			
0.2327	14891.44	4.0100	4.0100	0.8312	7.68	1.71	0.750			
0.2352	15052.05	4.0070	4.0070	0.8350	7.68	1.71	0.750			
0.2376	15208.08	4.0040	4.0040	0.8345	7.67	1.70	0.750			
0.2401	15368.62	4.0010	4.0011	0.8419	7.66	1.69	0.750			
0.2427	15533.06	3.9980	3.9981	0.8491	7.66	1.69	0.750			
0.2453	15696.93	3.9950	3.9950	0.8533	7.65	1.68	0.750			
0.2479	15862.45	3.9920	3.9921	0.8553	7.64	1.67	0.750			
0.2504	16025.69	3.9890	3.9889	0.8617	7.63	1.66	0.750			
0.2530	16192.92	3.9860	3.9861	0.8671	7.62	1.65	0.750			
0.2556	16360.09	3.9830	3.9830	0.8668	7.61	1.64	0.750			
0.2582	16527.13	3.9800	3.9799	0.8745	7.61	1.64	0.750			
0.2609	16695.41	3.9770	3.9771	0.8796	7.60	1.63	0.750			
0.2635	16863.68	3.9740	3.9741	0.8790	7.59	1.62	0.750			
0.2661	17033.13	3.9710	3.9710	0.8810	7.58	1.61	0.750			
0.2688	17202.02	3.9680	3.9680	0.8885	7.57	1.60	0.750			
0.2715	17373.90	3.9650	3.9650	0.8950	7.56	1.59	0.750			
0.2741	17544.95	3.9620	3.9619	0.9003	7.56	1.59	0.750			
0.2768	17718.06	3.9590	3.9590	0.9064	7.55	1.58	0.750			
0.2796	17893.64	3.9560	3.9561	0.9097	7.54	1.57	0.750			
0.2823	18069.93	3.9530	3.9531	0.9147	7.53	1.56	0.750			
0.2851	18246.08	3.9500	3.9500	0.9203	7.52	1.55	0.750			
0.2878	18422.04	3.9470	3.9468	0.9207	7.51	1.54	0.750			
0.2906	18599.47	3.9440	3.9441	0.9233	7.50	1.53	0.750			
0.2934	18775.04	3.9410	3.9411	0.9326	7.49	1.52	0.750			
0.2962	18955.56	3.9380	3.9380	0.9465	7.49	1.52	0.750			
0.2991	19139.78	3.9350	3.9350	0.9565	7.48	1.51	0.750			
0.3019	19324.51	3.9320	3.9320	0.9582	7.47	1.50	0.750			
0.3048	19508.51	3.9290	3.9290	0.9556	7.46	1.49	0.750			
0.3077	19693.48	3.9260	3.9261	0.9582	7.45	1.48	0.750			
0.3106	19875.29	3.9230	3.9231	0.9651	7.44	1.47	0.750			
0.3134	20057.48	3.9200	3.9197	0.9709	7.43	1.46	0.750			
0.3163	20244.21	3.9170	3.9172	0.9790	7.42	1.45	0.750			
0.3193	20434.70	3.9140	3.9140	0.9929	7.40	1.43	0.750			
0.3223	20630.36	3.9110	3.9110	1.0099	7.39	1.42	0.750			
0.3254	20823.97	3.9080	3.9079	1.0138	7.37	1.40	0.750			
0.3284	21019.28	3.9050	3.9050	1.0222	7.36	1.39	0.750			
0.3315	21215.37	3.9020	3.9020	1.0270	7.35	1.38	0.750			
0.3346	21412.49	3.8990	3.8990	1.0364	7.34	1.37	0.750			
0.3377	21613.44	3.8960	3.8959	1.0500	7.33	1.36	0.750			
0.3409	21816.07	3.8930	3.8932	1.0550	7.32	1.35	0.750			
0.3440	22015.37	3.8900	3.8901	1.0743	7.31	1.34	0.750			
0.3472	22223.56	3.8870	3.8871	1.0912	7.30	1.33	0.750			
0.3506	22439.26	3.8840	3.8836	1.1008	7.29	1.32	0.750			
0.3539	22651.31	3.8810	3.8811	1.1136	7.28	1.31	0.750			
0.3573	22865.88	3.8780	3.8782	1.1246	7.26	1.29	0.750			
0.3607	23084.18	3.8750	3.8751	1.1389	7.24	1.27	0.750			
0.3641	23301.23	3.8720	3.8721	1.1411	7.23	1.26	0.750			
0.3675	23520.70	3.8690	3.8690	1.1544	7.21	1.24	0.750			
0.3710	23745.17	3.8660	3.8659	1.1728	7.19	1.22	0.750			
0.3746	23972.84	3.8630	3.8631	1.1843	7.18	1.21	0.750			
0.3781	24200.79	3.8600	3.8599	1.1924	7.16	1.19	0.750			
0.3816	24425.59	3.8570	3.8572	1.2217	7.14	1.17	0.750			
0.3853	24659.96	3.8540	3.8540	1.2473	7.12	1.15	0.750			
0.3891	24904.64	3.8510	3.8507	1.2762	7.11	1.14	0.750			
0.3930	25153.59	3.8480	3.8481	1.2985	7.10	1.13	0.750			
0.3969	25404.24	3.8450	3.8452	1.3374	7.08	1.11	0.750			
0.4010	25664.15	3.8420	3.8417	1.3729	7.07	1.10	0.750			
0.4051	25926.73	3.8390	3.8390	1.3893	7.05	1.08	0.750			
0.4094	26198.96	3.8360	3.8362	1.4213	7.02	1.05	0.750	0.378	0.882	
0.4137	26479.18	3.8330	3.8330	1.4403	7.00	1.03	0.750			
0.4181	26756.65	3.8300	3.8301	1.4424	6.98	1.01	0.750			
0.4224	27033.65	3.8270	3.8271	1.4651	6.96	0.99	0.750			
0.4268	27317.25	3.8240	3.8240	1.4707	6.94	0.97	0.750			
0.4312	27597.59	3.8210	3.8210	1.5096	6.92	0.95	0.750			
0.4358	27894.13	3.8180	3.8181	1.5392	6.89	0.92	0.750			
0.4405	28194.80	3.8150	3.8150	1.5676	6.86	0.89	0.750			
0.4453	28497.45	3.8120	3.8123	1.5937	6.84	0.87	0.750			
0.4499	28793.85	3.8090	3.8091	1.6138	6.81	0.84	0.750			
0.4549	29110.51	3.8060	3.8062	1.6500	6.79	0.82	0.750			
0.4598	29429.40	3.8030	3.8031	1.6915	6.77	0.80	0.750			
0.4651	29763.53	3.8000	3.8001	1.7645	6.74	0.77	0.750			
0.4704	30105.26	3.7970	3.7968	1.7888	6.72	0.75	0.750			
0.4759	30460.46	3.7940	3.7938	1.8131	6.69	0.72	0.750			
0.4813	30803.23	3.7910	3.7909	1.8367	6.66	0.69	0.750			
0.4870	31170.07	3.7880	3.7880	1.8581	6.64	0.67	0.750			
0.4927	31533.73	3.7850	3.7848	1.9300	6.60	0.63	0.750			
0.4986	31909.90	3.7820	3.7821	1.9475	6.56	0.59	0.750			
0.5045	32288.82	3.7790	3.7785	1.9633	6.53	0.56	0.750			
0.5103	32661.83	3.7760	3.7759	1.9735	6.50	0.53	0.750			
0.5162	33033.70	3.7730	3.7733	1.9891	6.48	0.51	0.750			
0.5222	33422.69	3.7700	3.7699	1.9940	6.45	0.48	0.750			
0.5284	33818.67	3.7670	3.7669	2.0242	6.42	0.45	0.750			
0.5345	34206.20	3.7640	3.7640	2.0889	6.39	0.42	0.750			
0.5407	34607.06	3.7610	3.7610	2.0785	6.36	0.39	0.750			
0.5470	35009.94	3.7580	3.7578	2.0700	6.33	0.36	0.750			
0.5533	35413.73	3.7550	3.7551	2.1059	6.30	0.33	0.750			
0.5596	35814.55	3.7520	3.7519	2.1543	6.27	0.30	0.750			
0.5659	36220.06	3.7490	3.7491	2.1880	6.24	0.27	0.750			
0.5729	36665.77	3.7460	3.7460	2.2775	6.20	0.23	0.750			
0.5799	37111.04	3.7430	3.7429	2.3152	6.18	0.21	0.750			
0.5869	37558.79	3.7400	3.7400	2.4135	6.15	0.18	0.750			
0.5942	38027.72	3.7370	3.7369	2.4628	6.13	0.16	0.750			
0.6017	38506.10	3.7340	3.7340	2.5237	6.10	0.13	0.750			
0.6094	39002.75	3.7310	3.7310	2.5439	6.07	0.10	0.750			
0.6172	39503.39	3.7280	3.7280	2.5133	6.04	0.07	0.750			
0.6247	39979.89	3.7250	3.7249	2.5036	6.01	0.04	0.750			
0.6320	40450.44	3.7220	3.7215	2.4290	6.00	0.03	0.750			
0.6392	40908.61	3.7190	3.7192	2.3694	5.99	0.02	0.750			
0.6464	41370.91	3.7160	3.7160	2.2902	5.98	0.01	0.750			
0.6529	41783.31	3.7130	3.7130	2.0511	5.97	-0.00	0.750			
0.6588	42165.69	3.7100	3.7099	1.8732	5.96	-0.01	0.750			
0.6641	42502.79	3.7070	3.7071	1.6638	5.95	-0.02	0.750			
0.6686	42787.39	3.7040	3.7042	1.4489	5.94	-0.03	0.750			
0.6727	43049.78	3.7010	3.7011	1.3127	5.94	-0.03	0.750			
0.6763	43283.45	3.6980	3.6977	1.1825	5.93	-0.04	0.750			
0.6795	43490.23	3.6950	3.6951	1.0761	5.94	-0.03	0.750			
0.6826	43683.20	3.6920	3.6921	1.0138	5.94	-0.03	0.750			
0.6854	43868.53	3.6890	3.6890	0.9617	5.95	-0.02	0.750			
0.6882	44045.94	3.6860	3.6857	0.9180	5.95	-0.02	0.750			
0.6909	44216.50	3.6830	3.6831	0.8844	5.95	-0.02	0.750			
0.6935	44384.20	3.6800	3.6801	0.8530	5.95	-0.02	0.750			
0.6961	44547.38	3.6770	3.6770	0.8272	5.95	-0.02	0.750			
0.6985	44701.82	3.6740	3.6741	0.7922	5.95	-0.02	0.750			
0.7008	44851.81	3.6710	3.6708	0.7587	5.95	-0.02	0.750			
0.7031	44995.39	3.6680	3.6680	0.7258	5.95	-0.02	0.750			
0.7052	45131.52	3.6650	3.6651	0.6906	5.96	-0.01	0.750			
0.7072	45261.82	3.6620	3.6620	0.6550	5.96	-0.01	0.750			
0.7091	45383.54	3.6590	3.6589	0.6136	5.96	-0.01	0.750			
0.7109	45497.80	3.6560	3.6560	0.5750	5.97	-0.00	0.750			
0.7126	45604.06	3.6530	3.6530	0.5369	5.97	-0.00	0.750			
0.7141	45704.25	3.6500	3.6500	0.4992	5.97	0.00	0.750			
0.7156	45796.27	3.6470	3.6469	0.4610	5.97	0.00	0.750			
0.7169	45880.47	3.6440	3.6440	0.4227	5.98	0.01	0.750			
0.7181	45957.86	3.6410	3.6410	0.3868	5.98	0.01	0.750			
0.7192	46028.52	3.6380	3.6380	0.3521	5.98	0.01	0.750			
0.7202	46092.67	3.6350	3.6350	0.3170	5.98	0.01	0.750			
0.7211	46149.48	3.6320	3.6320	0.2823	5.98	0.01	0.750			
0.7219	46202.31	3.6290	3.6289	0.2462	5.98	0.01	0.750			
0.7226	46246.18	3.6260	3.6259	0.2087	5.98	0.01	0.750			
0.7232	46283.81	3.6230	3.6230	0.1720	5.99	0.02	0.750			
0.7237	46313.73	3.6200	3.6203	0.1322	5.99	0.02	0.750			
0.7240	46335.73	3.6170	3.6173	0.0901	5.99	0.02	0.750			
0.7242	46350.04	3.6140	3.6145	0.0441	5.99	0.02	0.750			
0.7243	46354.06	3.6110	3.6130	-0.0023	5.99	0.02	0.750			
