Ah_balance (normalized)	Ah_balance (mAh)	Voltage - fit (V)	Voltage -  interpolate (V)	dQ/dV (1/V)	Temperature (°C)	Temperature - diff (°C)	Current (C)	R_DC 0ms (mOhm)	R_DC 50ms (mOhm)	R_DC 50 ms PEC (mOhm)
0.0961	6150.26	4.0040	4.0049	-0.1312	5.99	0.00	-0.750			
0.0965	6176.36	4.0010	4.0011	-0.1441	5.99	-0.00	-0.750			
0.0969	6203.74	3.9980	3.9982	-0.1611	5.99	-0.00	-0.750			
0.0975	6236.81	3.9950	3.9949	-0.1815	5.99	-0.00	-0.750			
0.0980	6273.54	3.9920	3.9919	-0.2026	5.98	-0.01	-0.750			
0.0987	6313.99	3.9890	3.9890	-0.2230	5.98	-0.01	-0.750			
0.0994	6358.92	3.9860	3.9862	-0.2464	5.98	-0.01	-0.750			
0.1001	6408.20	3.9830	3.9830	-0.2698	5.98	-0.01	-0.750			
0.1010	6461.99	3.9800	3.9801	-0.2950	5.97	-0.02	-0.750			
0.1019	6521.06	3.9770	3.9769	-0.3184	5.97	-0.02	-0.750			
0.1029	6584.08	3.9740	3.9740	-0.3408	5.97	-0.02	-0.750			
0.1039	6652.32	3.9710	3.9710	-0.3659	5.97	-0.02	-0.750			
0.1051	6725.34	3.9680	3.9681	-0.3877	5.96	-0.03	-0.750			
0.1063	6802.14	3.9650	3.9649	-0.4094	5.96	-0.03	-0.750			
0.1075	6882.83	3.9620	3.9620	-0.4307	5.95	-0.04	-0.750			
0.1089	6966.73	3.9590	3.9592	-0.4520	5.95	-0.04	-0.750			
0.1102	7056.00	3.9560	3.9559	-0.4753	5.95	-0.04	-0.750			
0.1117	7151.08	3.9530	3.9530	-0.4921	5.95	-0.04	-0.750			
0.1132	7246.71	3.9500	3.9500	-0.5107	5.94	-0.05	-0.750			
0.1148	7345.92	3.9470	3.9471	-0.5350	5.94	-0.05	-0.750			
0.1164	7451.12	3.9440	3.9440	-0.5512	5.94	-0.05	-0.750			
0.1181	7559.38	3.9410	3.9408	-0.5654	5.93	-0.06	-0.750			
0.1198	7669.38	3.9380	3.9378	-0.5794	5.93	-0.06	-0.750			
0.1216	7782.98	3.9350	3.9353	-0.5947	5.93	-0.06	-0.750			
0.1234	7898.84	3.9320	3.9320	-0.6098	5.93	-0.06	-0.750			
0.1252	8015.93	3.9290	3.9289	-0.6182	5.93	-0.06	-0.750			
0.1271	8134.28	3.9260	3.9261	-0.6260	5.93	-0.06	-0.750			
0.1290	8258.87	3.9230	3.9230	-0.6462	5.93	-0.06	-0.750			
0.1310	8385.36	3.9200	3.9200	-0.6566	5.93	-0.06	-0.750			
0.1330	8512.54	3.9170	3.9169	-0.6600	5.93	-0.06	-0.750			
0.1350	8638.96	3.9140	3.9141	-0.6694	5.93	-0.06	-0.750			
0.1370	8767.86	3.9110	3.9109	-0.6751	5.93	-0.06	-0.750			
0.1390	8898.29	3.9080	3.9081	-0.6821	5.93	-0.06	-0.750			
0.1411	9029.60	3.9050	3.9050	-0.6875	5.93	-0.06	-0.750			
0.1432	9162.96	3.9020	3.9020	-0.6953	5.93	-0.06	-0.750			
0.1453	9298.14	3.8990	3.8989	-0.7007	5.93	-0.06	-0.750			
0.1474	9431.96	3.8960	3.8960	-0.7030	5.93	-0.06	-0.750			
0.1495	9567.67	3.8930	3.8930	-0.7055	5.94	-0.05	-0.750			
0.1516	9704.55	3.8900	3.8900	-0.7146	5.94	-0.05	-0.750			
0.1538	9842.56	3.8870	3.8869	-0.7178	5.94	-0.05	-0.750			
0.1560	9981.44	3.8840	3.8840	-0.7186	5.95	-0.04	-0.750			
0.1581	10119.36	3.8810	3.8811	-0.7221	5.95	-0.04	-0.750			
0.1603	10257.67	3.8780	3.8779	-0.7244	5.95	-0.04	-0.750			
0.1624	10396.66	3.8750	3.8750	-0.7244	5.95	-0.04	-0.750			
0.1646	10535.53	3.8720	3.8719	-0.7295	5.95	-0.04	-0.750			
0.1668	10675.79	3.8690	3.8689	-0.7282	5.96	-0.03	-0.750			
0.1690	10818.42	3.8660	3.8661	-0.7327	5.96	-0.03	-0.750			
0.1712	10958.48	3.8630	3.8632	-0.7343	5.96	-0.03	-0.750			
0.1734	11099.30	3.8600	3.8600	-0.7339	5.96	-0.03	-0.750			
0.1756	11239.51	3.8570	3.8570	-0.7426	5.96	-0.03	-0.750			
0.1778	11381.77	3.8540	3.8539	-0.7438	5.97	-0.02	-0.750			
0.1801	11526.14	3.8510	3.8511	-0.7495	5.97	-0.02	-0.750			
0.1824	11672.12	3.8480	3.8478	-0.7471	5.97	-0.02	-0.750			
0.1846	11816.47	3.8450	3.8450	-0.7475	5.97	-0.02	-0.750			
0.1869	11958.91	3.8420	3.8420	-0.7447	5.98	-0.01	-0.750			
0.1891	12100.51	3.8390	3.8390	-0.7452	5.99	-0.00	-0.750			
0.1913	12241.54	3.8360	3.8359	-0.7395	5.99	0.00	-0.750			
0.1935	12386.54	3.8330	3.8330	-0.7490	6.00	0.01	-0.750			
0.1958	12530.37	3.8300	3.8302	-0.7521	6.01	0.02	-0.750			
0.1981	12676.23	3.8270	3.8268	-0.7513	6.01	0.02	-0.750			
0.2003	12820.67	3.8240	3.8241	-0.7485	6.02	0.03	-0.750			
0.2026	12963.86	3.8210	3.8210	-0.7511	6.02	0.03	-0.750			
0.2048	13107.38	3.8180	3.8181	-0.7485	6.02	0.03	-0.750			
0.2071	13253.05	3.8150	3.8149	-0.7511	6.03	0.04	-0.750			
0.2093	13396.00	3.8120	3.8121	-0.7531	6.03	0.04	-0.750			
0.2116	13541.23	3.8090	3.8091	-0.7540	6.03	0.04	-0.750			
0.2139	13686.83	3.8060	3.8059	-0.7569	6.04	0.05	-0.750			
0.2161	13831.77	3.8030	3.8031	-0.7538	6.04	0.05	-0.750			
0.2184	13978.47	3.8000	3.8000	-0.7557	6.05	0.06	-0.750			
0.2207	14123.75	3.7970	3.7969	-0.7536	6.05	0.06	-0.750			
0.2229	14266.36	3.7940	3.7940	-0.7544	6.06	0.07	-0.750			
0.2252	14410.57	3.7910	3.7910	-0.7555	6.06	0.07	-0.750			
0.2274	14556.23	3.7880	3.7880	-0.7583	6.07	0.08	-0.750			
0.2297	14702.61	3.7850	3.7850	-0.7536	6.08	0.09	-0.750			
0.2320	14848.61	3.7820	3.7820	-0.7551	6.08	0.09	-0.750			
0.2343	14992.27	3.7790	3.7791	-0.7608	6.09	0.10	-0.750			
0.2365	15137.30	3.7760	3.7760	-0.7627	6.09	0.10	-0.750			
0.2388	15283.97	3.7730	3.7729	-0.7625	6.10	0.11	-0.750			
0.2411	15431.64	3.7700	3.7701	-0.7672	6.10	0.11	-0.750			
0.2434	15580.43	3.7670	3.7671	-0.7673	6.11	0.12	-0.750			
0.2458	15728.64	3.7640	3.7640	-0.7669	6.11	0.12	-0.750			
0.2480	15873.88	3.7610	3.7610	-0.7689	6.11	0.12	-0.750			
0.2503	16019.89	3.7580	3.7580	-0.7726	6.12	0.13	-0.750			
0.2527	16169.83	3.7550	3.7549	-0.7719	6.12	0.13	-0.750			
0.2550	16318.81	3.7520	3.7520	-0.7754	6.12	0.13	-0.750			
0.2573	16468.78	3.7490	3.7491	-0.7778	6.13	0.14	-0.750			
0.2596	16617.56	3.7460	3.7461	-0.7849	6.13	0.14	-0.750			
0.2620	16766.89	3.7430	3.7429	-0.7890	6.14	0.15	-0.750			
0.2643	16918.11	3.7400	3.7399	-0.7947	6.14	0.15	-0.750			
0.2668	17072.04	3.7370	3.7370	-0.8009	6.14	0.15	-0.750			
0.2692	17228.92	3.7340	3.7341	-0.8064	6.15	0.16	-0.750			
0.2716	17384.55	3.7310	3.7311	-0.8078	6.15	0.16	-0.750			
0.2741	17539.40	3.7280	3.7280	-0.8102	6.16	0.17	-0.750			
0.2764	17691.90	3.7250	3.7251	-0.8142	6.16	0.17	-0.750			
0.2789	17850.33	3.7220	3.7218	-0.8197	6.17	0.18	-0.750			
0.2814	18009.75	3.7190	3.7190	-0.8222	6.17	0.18	-0.750			
0.2839	18167.81	3.7160	3.7162	-0.8286	6.18	0.19	-0.750			
0.2864	18327.71	3.7130	3.7129	-0.8379	6.18	0.19	-0.750			
0.2889	18488.94	3.7100	3.7100	-0.8502	6.18	0.19	-0.750			
0.2914	18651.87	3.7070	3.7069	-0.8497	6.19	0.20	-0.750			
0.2940	18817.31	3.7040	3.7039	-0.8613	6.19	0.20	-0.750			
0.2966	18983.75	3.7010	3.7013	-0.8663	6.19	0.20	-0.750			
0.2992	19150.25	3.6980	3.6979	-0.8773	6.20	0.21	-0.750			
0.3018	19317.12	3.6950	3.6950	-0.8821	6.21	0.22	-0.750			
0.3044	19484.53	3.6920	3.6919	-0.8890	6.22	0.23	-0.750			
0.3072	19660.10	3.6890	3.6890	-0.9049	6.23	0.24	-0.750			
0.3099	19835.05	3.6860	3.6861	-0.9140	6.23	0.24	-0.750			
0.3127	20012.05	3.6830	3.6830	-0.9249	6.24	0.25	-0.750			
0.3155	20191.44	3.6800	3.6799	-0.9302	6.24	0.25	-0.750			
0.3183	20369.02	3.6770	3.6770	-0.9325	6.25	0.26	-0.750			
0.3211	20549.90	3.6740	3.6743	-0.9413	6.25	0.26	-0.750			
0.3239	20731.90	3.6710	3.6709	-0.9501	6.25	0.26	-0.750			
0.3268	20916.70	3.6680	3.6679	-0.9481	6.26	0.27	-0.750			
0.3296	21096.47	3.6650	3.6650	-0.9526	6.26	0.27	-0.750			
0.3325	21280.53	3.6620	3.6620	-0.9725	6.27	0.28	-0.750			
0.3354	21466.40	3.6590	3.6589	-0.9833	6.27	0.28	-0.750			
0.3384	21657.39	3.6560	3.6558	-0.9987	6.28	0.29	-0.750			
0.3414	21851.49	3.6530	3.6530	-1.0102	6.28	0.29	-0.750			
0.3445	22047.43	3.6500	3.6500	-1.0201	6.29	0.30	-0.750			
0.3476	22248.20	3.6470	3.6468	-1.0429	6.29	0.30	-0.750			
0.3507	22445.95	3.6440	3.6439	-1.0418	6.30	0.31	-0.750			
0.3538	22645.68	3.6410	3.6409	-1.0529	6.30	0.31	-0.750			
0.3570	22846.57	3.6380	3.6380	-1.0597	6.31	0.32	-0.750			
0.3603	23056.79	3.6350	3.6350	-1.0803	6.31	0.32	-0.750			
0.3635	23264.87	3.6320	3.6320	-1.0892	6.31	0.32	-0.750			
0.3668	23474.12	3.6290	3.6290	-1.0976	6.32	0.33	-0.750			
0.3701	23684.41	3.6260	3.6260	-1.1036	6.32	0.33	-0.750			
0.3734	23899.22	3.6230	3.6229	-1.1249	6.32	0.33	-0.750			
0.3768	24116.01	3.6200	3.6200	-1.1341	6.32	0.33	-0.750			
0.3803	24337.41	3.6170	3.6169	-1.1367	6.33	0.34	-0.750			
0.3837	24555.59	3.6140	3.6144	-1.1510	6.33	0.34	-0.750			
0.3871	24777.18	3.6110	3.6110	-1.1620	6.34	0.35	-0.750			
0.3906	25001.04	3.6080	3.6080	-1.1713	6.34	0.35	-0.750			
0.3942	25225.74	3.6050	3.6049	-1.1861	6.35	0.36	-0.750			
0.3977	25452.23	3.6020	3.6021	-1.2134	6.35	0.36	-0.750			
0.4014	25689.80	3.5990	3.5990	-1.2198	6.35	0.36	-0.750			
0.4051	25929.22	3.5960	3.5959	-1.2368	6.35	0.36	-0.750			
0.4088	26164.13	3.5930	3.5930	-1.2451	6.35	0.36	-0.750			
0.4126	26406.89	3.5900	3.5899	-1.2538	6.36	0.37	-0.750	0.474	1.094	
0.4164	26650.48	3.5870	3.5868	-1.2609	6.36	0.37	-0.750			
0.4202	26889.80	3.5840	3.5839	-1.2787	6.37	0.38	-0.750			
0.4240	27133.91	3.5810	3.5810	-1.2874	6.37	0.38	-0.750			
0.4279	27387.64	3.5780	3.5779	-1.3022	6.38	0.39	-0.750			
0.4318	27635.00	3.5750	3.5750	-1.3191	6.39	0.40	-0.750			
0.4358	27889.29	3.5720	3.5720	-1.3270	6.39	0.40	-0.750			
0.4399	28151.21	3.5690	3.5689	-1.3510	6.39	0.40	-0.750			
0.4439	28408.60	3.5660	3.5659	-1.3651	6.40	0.41	-0.750			
0.4479	28667.98	3.5630	3.5632	-1.3714	6.40	0.41	-0.750			
0.4522	28941.06	3.5600	3.5599	-1.3968	6.40	0.41	-0.750			
0.4564	29208.85	3.5570	3.5568	-1.4284	6.41	0.42	-0.750			
0.4607	29483.68	3.5540	3.5541	-1.4264	6.41	0.42	-0.750			
0.4651	29763.37	3.5510	3.5509	-1.4453	6.42	0.43	-0.750			
0.4694	30044.75	3.5480	3.5482	-1.4662	6.43	0.44	-0.750			
0.4738	30326.37	3.5450	3.5448	-1.4716	6.43	0.44	-0.750			
0.4783	30611.18	3.5420	3.5419	-1.4995	6.44	0.45	-0.750			
0.4828	30901.57	3.5390	3.5391	-1.5114	6.45	0.46	-0.750			
0.4874	31195.31	3.5360	3.5359	-1.5162	6.46	0.47	-0.750			
0.4920	31487.97	3.5330	3.5329	-1.5362	6.46	0.47	-0.750			
0.4966	31780.27	3.5300	3.5301	-1.5404	6.47	0.48	-0.750			
0.5012	32076.66	3.5270	3.5269	-1.5408	6.48	0.49	-0.750			
0.5058	32373.08	3.5240	3.5239	-1.5556	6.49	0.50	-0.750			
0.5106	32677.25	3.5210	3.5209	-1.5338	6.49	0.50	-0.750			
0.5153	32979.48	3.5180	3.5180	-1.5322	6.50	0.51	-0.750			
0.5198	33269.91	3.5150	3.5151	-1.5268	6.51	0.52	-0.750			
0.5243	33556.61	3.5120	3.5119	-1.5317	6.52	0.53	-0.750			
0.5289	33850.31	3.5090	3.5087	-1.5438	6.52	0.53	-0.750			
0.5335	34145.36	3.5060	3.5063	-1.5604	6.53	0.54	-0.750			
0.5383	34448.37	3.5030	3.5033	-1.5675	6.53	0.54	-0.750			
0.5432	34761.61	3.5000	3.4999	-1.6003	6.53	0.54	-0.750			
0.5479	35067.37	3.4970	3.4967	-1.5810	6.53	0.54	-0.750			
0.5527	35371.23	3.4940	3.4939	-1.5654	6.55	0.56	-0.750			
0.5572	35662.53	3.4910	3.4913	-1.6096	6.56	0.57	-0.750			
0.5620	35967.10	3.4880	3.4879	-1.6375	6.57	0.58	-0.750			
0.5670	36285.87	3.4850	3.4846	-1.7177	6.58	0.59	-0.750			
0.5723	36629.22	3.4820	3.4821	-1.6766	6.59	0.60	-0.750			
0.5777	36969.92	3.4790	3.4791	-1.6947	6.61	0.62	-0.750			
0.5827	37291.15	3.4760	3.4765	-1.6479	6.63	0.64	-0.750			
0.5875	37602.26	3.4730	3.4725	-1.6035	6.64	0.65	-0.750			
0.5920	37888.80	3.4700	3.4703	-1.5409	6.66	0.67	-0.750			
0.5967	38185.67	3.4670	3.4673	-1.5235	6.67	0.68	-0.750			
0.6012	38478.50	3.4640	3.4644	-1.5177	6.69	0.70	-0.750			
0.6057	38767.33	3.4610	3.4608	-1.5072	6.70	0.71	-0.750			
0.6102	39054.75	3.4580	3.4580	-1.4851	6.72	0.73	-0.750			
0.6147	39339.26	3.4550	3.4549	-1.4686	6.73	0.74	-0.750			
0.6191	39621.04	3.4520	3.4519	-1.4607	6.74	0.75	-0.750			
0.6234	39897.68	3.4490	3.4490	-1.4281	6.76	0.77	-0.750			
0.6277	40172.80	3.4460	3.4459	-1.4170	6.78	0.79	-0.750			
0.6319	40438.53	3.4430	3.4429	-1.3948	6.79	0.80	-0.750			
0.6360	40704.84	3.4400	3.4399	-1.3661	6.81	0.82	-0.750			
0.6402	40970.09	3.4370	3.4369	-1.3504	6.83	0.84	-0.750			
0.6441	41224.90	3.4340	3.4340	-1.3297	6.84	0.85	-0.750			
0.6481	41476.58	3.4310	3.4310	-1.2993	6.86	0.87	-0.750			
0.6520	41729.57	3.4280	3.4279	-1.2748	6.87	0.88	-0.750			
0.6558	41969.44	3.4250	3.4249	-1.2431	6.89	0.90	-0.750			
0.6594	42204.08	3.4220	3.4222	-1.2176	6.90	0.91	-0.750			
0.6631	42438.39	3.4190	3.4190	-1.1961	6.92	0.93	-0.750			
0.6666	42663.74	3.4160	3.4159	-1.1697	6.93	0.94	-0.750			
0.6701	42885.34	3.4130	3.4130	-1.1420	6.95	0.96	-0.750			
0.6735	43103.92	3.4100	3.4099	-1.1243	6.96	0.97	-0.750			
0.6768	43318.32	3.4070	3.4070	-1.0917	6.97	0.98	-0.750			
0.6801	43524.22	3.4040	3.4040	-1.0602	6.99	1.00	-0.750			
0.6832	43724.74	3.4010	3.4011	-1.0287	7.00	1.01	-0.750			
0.6862	43919.29	3.3980	3.3980	-1.0083	7.01	1.02	-0.750			
0.6892	44109.56	3.3950	3.3949	-0.9804	7.03	1.04	-0.750			
0.6921	44295.25	3.3920	3.3920	-0.9558	7.05	1.06	-0.750			
0.6949	44476.48	3.3890	3.3890	-0.9298	7.06	1.07	-0.750			
0.6978	44656.35	3.3860	3.3860	-0.9084	7.08	1.09	-0.750			
0.7004	44827.23	3.3830	3.3830	-0.8824	7.09	1.10	-0.750			
0.7030	44993.93	3.3800	3.3800	-0.8549	7.10	1.11	-0.750			
0.7055	45153.25	3.3770	3.3770	-0.8303	7.12	1.13	-0.750			
0.7080	45311.59	3.3740	3.3740	-0.8101	7.13	1.14	-0.750			
0.7104	45464.96	3.3710	3.3709	-0.7884	7.14	1.15	-0.750			
0.7127	45613.43	3.3680	3.3680	-0.7704	7.16	1.17	-0.750			
0.7150	45759.92	3.3650	3.3650	-0.7540	7.17	1.18	-0.750			
0.7172	45902.90	3.3620	3.3620	-0.7328	7.19	1.20	-0.750			
0.7194	46043.54	3.3590	3.3589	-0.7160	7.20	1.21	-0.750			
0.7215	46178.88	3.3560	3.3561	-0.6927	7.21	1.22	-0.750			
0.7236	46310.78	3.3530	3.3530	-0.6692	7.23	1.24	-0.750			
0.7256	46436.58	3.3500	3.3500	-0.6438	7.24	1.25	-0.750			
0.7275	46558.76	3.3470	3.3470	-0.6400	7.25	1.26	-0.750			
