Ah_balance (normalized)	Ah_balance (mAh)	Voltage - fit (V)	Voltage -  interpolate (V)	dQ/dV (1/V)	Temperature (°C)	Temperature - diff (°C)	Current (C)	R_DC 0ms (mOhm)	R_DC 50ms (mOhm)	R_DC 50 ms PEC (mOhm)
0.1575	10081.39	4.0760	4.0760	0.8079	7.81	1.82	0.750			
0.1599	10236.19	4.0730	4.0730	0.8059	7.81	1.82	0.750			
0.1624	10391.92	4.0700	4.0700	0.8064	7.80	1.81	0.750			
0.1648	10546.35	4.0670	4.0670	0.8022	7.80	1.81	0.750			
0.1672	10700.02	4.0640	4.0641	0.8002	7.79	1.80	0.750			
0.1696	10851.98	4.0610	4.0609	0.8003	7.79	1.80	0.750			
0.1719	11004.55	4.0580	4.0580	0.8016	7.79	1.80	0.750			
0.1744	11158.64	4.0550	4.0550	0.8079	7.79	1.80	0.750			
0.1768	11313.48	4.0520	4.0520	0.8136	7.78	1.79	0.750			
0.1792	11470.61	4.0490	4.0491	0.8220	7.78	1.79	0.750			
0.1817	11630.29	4.0460	4.0460	0.8326	7.78	1.79	0.750			
0.1842	11790.90	4.0430	4.0430	0.8387	7.78	1.79	0.750			
0.1868	11953.69	4.0400	4.0399	0.8375	7.78	1.79	0.750			
0.1893	12115.51	4.0370	4.0370	0.8387	7.77	1.78	0.750			
0.1918	12275.79	4.0340	4.0341	0.8370	7.77	1.78	0.750			
0.1943	12435.61	4.0310	4.0309	0.8397	7.77	1.78	0.750			
0.1968	12595.89	4.0280	4.0280	0.8393	7.77	1.78	0.750			
0.1993	12757.67	4.0250	4.0249	0.8399	7.76	1.77	0.750			
0.2019	12919.53	4.0220	4.0221	0.8464	7.76	1.77	0.750			
0.2044	13082.67	4.0190	4.0190	0.8499	7.75	1.76	0.750			
0.2070	13245.63	4.0160	4.0158	0.8554	7.75	1.76	0.750			
0.2095	13409.30	4.0130	4.0130	0.8604	7.75	1.76	0.750			
0.2121	13575.55	4.0100	4.0100	0.8639	7.74	1.75	0.750			
0.2147	13743.52	4.0070	4.0070	0.8700	7.74	1.75	0.750			
0.2174	13912.14	4.0040	4.0040	0.8707	7.73	1.74	0.750			
0.2200	14078.44	4.0010	4.0009	0.8702	7.73	1.74	0.750			
0.2226	14245.76	3.9980	3.9980	0.8716	7.73	1.74	0.750			
0.2252	14411.86	3.9950	3.9950	0.8777	7.72	1.73	0.750			
0.2278	14580.01	3.9920	3.9920	0.8789	7.72	1.73	0.750			
0.2305	14749.78	3.9890	3.9890	0.8839	7.71	1.72	0.750			
0.2331	14920.21	3.9860	3.9860	0.8866	7.71	1.72	0.750			
0.2358	15092.48	3.9830	3.9830	0.8817	7.70	1.71	0.750			
0.2384	15260.72	3.9800	3.9800	0.8854	7.70	1.71	0.750			
0.2411	15430.31	3.9770	3.9770	0.8893	7.69	1.70	0.750			
0.2437	15598.83	3.9740	3.9740	0.8909	7.68	1.69	0.750			
0.2464	15771.64	3.9710	3.9710	0.9011	7.68	1.69	0.750			
0.2491	15945.19	3.9680	3.9680	0.9044	7.67	1.68	0.750			
0.2519	16119.64	3.9650	3.9650	0.9134	7.66	1.67	0.750			
0.2546	16297.45	3.9620	3.9620	0.9219	7.66	1.67	0.750			
0.2574	16473.29	3.9590	3.9589	0.9201	7.65	1.66	0.750			
0.2602	16651.48	3.9560	3.9560	0.9216	7.64	1.65	0.750			
0.2629	16828.15	3.9530	3.9531	0.9290	7.63	1.64	0.750			
0.2657	17006.11	3.9500	3.9500	0.9349	7.62	1.63	0.750			
0.2685	17185.64	3.9470	3.9469	0.9400	7.61	1.62	0.750			
0.2714	17368.14	3.9440	3.9440	0.9387	7.61	1.62	0.750			
0.2742	17548.71	3.9410	3.9410	0.9475	7.61	1.62	0.750			
0.2770	17730.96	3.9380	3.9381	0.9544	7.60	1.61	0.750			
0.2799	17914.84	3.9350	3.9350	0.9616	7.60	1.61	0.750			
0.2828	18097.26	3.9320	3.9319	0.9673	7.60	1.61	0.750			
0.2857	18284.96	3.9290	3.9291	0.9770	7.59	1.60	0.750			
0.2887	18474.15	3.9260	3.9260	0.9874	7.58	1.59	0.750			
0.2917	18666.02	3.9230	3.9230	0.9969	7.58	1.59	0.750			
0.2946	18857.46	3.9200	3.9199	1.0013	7.57	1.58	0.750			
0.2977	19050.14	3.9170	3.9170	1.0099	7.56	1.57	0.750			
0.3007	19244.61	3.9140	3.9140	1.0206	7.55	1.56	0.750			
0.3038	19440.47	3.9110	3.9110	1.0274	7.54	1.55	0.750			
0.3069	19639.42	3.9080	3.9079	1.0410	7.53	1.54	0.750			
0.3100	19840.87	3.9050	3.9050	1.0462	7.52	1.53	0.750			
0.3131	20041.32	3.9020	3.9020	1.0592	7.52	1.53	0.750			
0.3163	20246.12	3.8990	3.8990	1.0681	7.51	1.52	0.750			
0.3196	20452.45	3.8960	3.8958	1.0777	7.50	1.51	0.750			
0.3228	20659.21	3.8930	3.8931	1.0893	7.49	1.50	0.750			
0.3261	20869.22	3.8900	3.8901	1.1066	7.49	1.50	0.750			
0.3294	21082.63	3.8870	3.8870	1.1242	7.48	1.49	0.750			
0.3328	21300.54	3.8840	3.8840	1.1320	7.47	1.48	0.750			
0.3362	21519.42	3.8810	3.8810	1.1471	7.45	1.46	0.750			
0.3397	21742.85	3.8780	3.8781	1.1668	7.43	1.44	0.750			
0.3433	21969.27	3.8750	3.8750	1.1750	7.42	1.43	0.750			
0.3468	22194.21	3.8720	3.8720	1.1893	7.41	1.42	0.750			
0.3503	22421.14	3.8690	3.8691	1.2089	7.40	1.41	0.750			
0.3540	22655.71	3.8660	3.8661	1.2319	7.39	1.40	0.750			
0.3577	22895.46	3.8630	3.8628	1.2538	7.38	1.39	0.750			
0.3615	23138.20	3.8600	3.8600	1.2768	7.36	1.37	0.750			
0.3654	23386.12	3.8570	3.8571	1.2979	7.35	1.36	0.750			
0.3694	23638.54	3.8540	3.8540	1.3185	7.33	1.34	0.750			
0.3733	23891.32	3.8510	3.8510	1.3341	7.32	1.33	0.750			
0.3773	24149.40	3.8480	3.8481	1.3602	7.31	1.32	0.750			
0.3815	24414.03	3.8450	3.8449	1.3790	7.29	1.30	0.750			
0.3856	24677.22	3.8420	3.8420	1.4059	7.27	1.28	0.750			
0.3898	24948.89	3.8390	3.8391	1.4394	7.25	1.26	0.750			
0.3942	25227.60	3.8360	3.8359	1.4776	7.23	1.24	0.750	0.443	1.014	
0.3986	25513.57	3.8330	3.8329	1.5066	7.21	1.22	0.750			
0.4032	25807.38	3.8300	3.8301	1.5405	7.19	1.20	0.750			
0.4079	26108.26	3.8270	3.8271	1.5821	7.17	1.18	0.750			
0.4127	26413.53	3.8240	3.8240	1.6094	7.14	1.15	0.750			
0.4175	26722.00	3.8210	3.8210	1.6357	7.12	1.13	0.750			
0.4225	27040.32	3.8180	3.8181	1.6756	7.10	1.11	0.750			
0.4276	27369.05	3.8150	3.8149	1.6995	7.09	1.10	0.750			
0.4328	27698.33	3.8120	3.8121	1.7425	7.07	1.08	0.750			
0.4380	28029.85	3.8090	3.8091	1.7841	7.05	1.06	0.750			
0.4435	28381.64	3.8060	3.8060	1.8233	7.03	1.04	0.750			
0.4490	28738.53	3.8030	3.8029	1.8702	7.00	1.01	0.750			
0.4547	29100.89	3.8000	3.8002	1.9091	6.96	0.97	0.750			
0.4605	29472.89	3.7970	3.7968	1.9486	6.94	0.95	0.750			
0.4665	29852.82	3.7940	3.7940	1.9875	6.92	0.93	0.750			
0.4724	30236.65	3.7910	3.7912	2.0347	6.90	0.91	0.750			
0.4786	30630.78	3.7880	3.7879	2.0838	6.87	0.88	0.750			
0.4849	31033.86	3.7850	3.7850	2.1316	6.84	0.85	0.750			
0.4915	31453.97	3.7820	3.7820	2.1879	6.80	0.81	0.750			
0.4980	31874.10	3.7790	3.7788	2.2310	6.77	0.78	0.750			
0.5048	32306.95	3.7760	3.7760	2.2649	6.74	0.75	0.750			
0.5117	32747.11	3.7730	3.7730	2.2687	6.71	0.72	0.750			
0.5185	33186.84	3.7700	3.7700	2.3148	6.68	0.69	0.750			
0.5255	33632.45	3.7670	3.7669	2.3526	6.64	0.65	0.750			
0.5327	34091.26	3.7640	3.7640	2.3918	6.61	0.62	0.750			
0.5399	34554.27	3.7610	3.7610	2.4300	6.57	0.58	0.750			
0.5473	35024.15	3.7580	3.7580	2.4604	6.53	0.54	0.750			
0.5546	35496.66	3.7550	3.7550	2.5129	6.49	0.50	0.750			
0.5622	35983.15	3.7520	3.7519	2.5509	6.46	0.47	0.750			
0.5699	36474.38	3.7490	3.7491	2.6262	6.42	0.43	0.750			
0.5780	36989.08	3.7460	3.7460	2.7284	6.38	0.39	0.750			
0.5862	37518.99	3.7430	3.7431	2.8253	6.34	0.35	0.750			
0.5950	38079.59	3.7400	3.7400	2.9752	6.31	0.32	0.750			
0.6042	38668.01	3.7370	3.7371	3.1089	6.26	0.27	0.750			
0.6137	39279.02	3.7340	3.7340	3.2745	6.21	0.22	0.750			
0.6238	39926.23	3.7310	3.7311	3.3823	6.17	0.18	0.750			
0.6343	40593.20	3.7280	3.7280	3.3528	6.12	0.13	0.750			
0.6441	41220.45	3.7250	3.7250	3.1584	6.09	0.10	0.750			
0.6532	41807.99	3.7220	3.7221	2.8992	6.06	0.07	0.750			
0.6615	42338.42	3.7190	3.7190	2.5693	6.04	0.05	0.750			
0.6686	42789.91	3.7160	3.7161	2.1950	6.01	0.02	0.750			
0.6746	43172.00	3.7130	3.7130	1.8874	6.01	0.02	0.750			
0.6795	43488.82	3.7100	3.7102	1.6063	6.01	0.02	0.750			
0.6840	43776.64	3.7070	3.7069	1.3918	6.01	0.02	0.750			
0.6876	44007.81	3.7040	3.7040	1.2189	6.00	0.01	0.750			
0.6909	44214.93	3.7010	3.7010	1.0697	6.00	0.01	0.750			
0.6938	44400.40	3.6980	3.6979	0.9690	5.99	0.00	0.750			
0.6965	44575.25	3.6950	3.6950	0.8890	5.99	0.00	0.750			
0.6990	44734.79	3.6920	3.6920	0.8196	5.99	0.00	0.750			
0.7014	44886.55	3.6890	3.6890	0.7649	5.99	0.00	0.750			
0.7036	45028.58	3.6860	3.6861	0.7074	5.99	0.00	0.750			
0.7056	45159.96	3.6830	3.6830	0.6478	5.99	0.00	0.750			
0.7075	45280.45	3.6800	3.6800	0.5892	5.99	0.00	0.750			
0.7092	45386.74	3.6770	3.6771	0.5286	5.99	0.00	0.750			
0.7107	45481.69	3.6740	3.6740	0.4706	5.99	0.00	0.750			
0.7120	45564.82	3.6710	3.6709	0.4192	5.99	0.00	0.750			
0.7131	45638.85	3.6680	3.6679	0.3710	5.99	0.00	0.750			
0.7141	45704.31	3.6650	3.6650	0.3251	5.99	0.00	0.750			
0.7150	45762.40	3.6620	3.6621	0.2853	5.99	0.00	0.750			
0.7158	45813.47	3.6590	3.6589	0.2455	5.99	0.00	0.750			
0.7165	45856.75	3.6560	3.6560	0.2057	5.99	0.00	0.750			
0.7171	45892.20	3.6530	3.6530	0.1659	5.99	0.00	0.750			
0.7175	45919.99	3.6500	3.6502	0.1269	5.99	0.00	0.750			
0.7178	45941.46	3.6470	3.6476	0.0855	5.99	0.00	0.750			
0.7180	45953.89	3.6440	3.6449	0.0393	5.99	0.00	0.750			
