Ah_balance (normalized)	Ah_balance (mAh)	Voltage - fit (V)	Voltage -  interpolate (V)	dQ/dV (1/V)	Temperature (°C)	Temperature - diff (°C)	Current (C)	R_DC 0ms (mOhm)	R_DC 50ms (mOhm)	R_DC 50 ms PEC (mOhm)
0.0942	6026.12	4.0040	4.0035	-0.0918	6.00	0.01	-0.750			
0.0945	6046.85	4.0010	4.0007	-0.1205	6.00	0.01	-0.750			
0.0949	6073.43	3.9980	3.9978	-0.1469	5.99	0.00	-0.750			
0.0954	6103.81	3.9950	3.9950	-0.1721	5.99	0.00	-0.750			
0.0959	6139.16	3.9920	3.9920	-0.1980	5.99	0.00	-0.750			
0.0966	6179.58	3.9890	3.9891	-0.2234	5.99	-0.00	-0.750			
0.0973	6225.12	3.9860	3.9859	-0.2489	5.99	-0.00	-0.750			
0.0980	6274.98	3.9830	3.9830	-0.2736	5.98	-0.01	-0.750			
0.0989	6329.90	3.9800	3.9800	-0.2992	5.98	-0.01	-0.750			
0.0998	6390.00	3.9770	3.9771	-0.3244	5.98	-0.01	-0.750			
0.1009	6455.31	3.9740	3.9739	-0.3487	5.97	-0.02	-0.750			
0.1019	6524.15	3.9710	3.9711	-0.3729	5.97	-0.02	-0.750			
0.1031	6598.43	3.9680	3.9680	-0.3968	5.97	-0.02	-0.750			
0.1043	6676.82	3.9650	3.9650	-0.4227	5.96	-0.03	-0.750			
0.1056	6760.28	3.9620	3.9620	-0.4477	5.96	-0.03	-0.750			
0.1070	6848.81	3.9590	3.9590	-0.4713	5.96	-0.03	-0.750			
0.1085	6941.92	3.9560	3.9562	-0.4952	5.95	-0.04	-0.750			
0.1100	7039.88	3.9530	3.9530	-0.5187	5.95	-0.04	-0.750			
0.1116	7141.31	3.9500	3.9500	-0.5395	5.95	-0.04	-0.750			
0.1132	7247.48	3.9470	3.9470	-0.5584	5.94	-0.05	-0.750			
0.1149	7355.97	3.9440	3.9440	-0.5809	5.94	-0.05	-0.750			
0.1168	7472.11	3.9410	3.9410	-0.5952	5.94	-0.05	-0.750			
0.1186	7588.24	3.9380	3.9380	-0.6105	5.93	-0.06	-0.750			
0.1204	7707.14	3.9350	3.9351	-0.6259	5.93	-0.06	-0.750			
0.1223	7827.86	3.9320	3.9320	-0.6430	5.93	-0.06	-0.750			
0.1243	7952.63	3.9290	3.9289	-0.6557	5.93	-0.06	-0.750			
0.1263	8080.04	3.9260	3.9259	-0.6681	5.93	-0.06	-0.750			
0.1283	8209.13	3.9230	3.9231	-0.6761	5.93	-0.06	-0.750			
0.1304	8344.11	3.9200	3.9201	-0.6949	5.93	-0.06	-0.750			
0.1325	8476.82	3.9170	3.9170	-0.6988	5.93	-0.06	-0.750			
0.1346	8611.58	3.9140	3.9139	-0.7037	5.93	-0.06	-0.750			
0.1367	8747.09	3.9110	3.9110	-0.7096	5.93	-0.06	-0.750			
0.1388	8885.20	3.9080	3.9080	-0.7191	5.94	-0.05	-0.750			
0.1410	9023.70	3.9050	3.9050	-0.7240	5.94	-0.05	-0.750			
0.1432	9164.20	3.9020	3.9019	-0.7272	5.95	-0.04	-0.750			
0.1454	9303.38	3.8990	3.8991	-0.7297	5.95	-0.04	-0.750			
0.1476	9444.10	3.8960	3.8960	-0.7338	5.95	-0.04	-0.750			
0.1498	9585.85	3.8930	3.8930	-0.7377	5.96	-0.03	-0.750			
0.1520	9727.25	3.8900	3.8899	-0.7457	5.96	-0.03	-0.750			
0.1542	9870.74	3.8870	3.8870	-0.7486	5.96	-0.03	-0.750			
0.1565	10015.64	3.8840	3.8839	-0.7562	5.97	-0.02	-0.750			
0.1588	10162.17	3.8810	3.8813	-0.7573	5.97	-0.02	-0.750			
0.1611	10308.02	3.8780	3.8780	-0.7593	5.97	-0.02	-0.750			
0.1633	10453.32	3.8750	3.8750	-0.7632	5.97	-0.02	-0.750			
0.1656	10599.33	3.8720	3.8719	-0.7662	5.98	-0.01	-0.750			
0.1679	10746.90	3.8690	3.8690	-0.7696	5.98	-0.01	-0.750			
0.1702	10894.70	3.8660	3.8659	-0.7726	5.98	-0.01	-0.750			
0.1726	11044.06	3.8630	3.8630	-0.7748	5.98	-0.01	-0.750			
0.1749	11194.02	3.8600	3.8600	-0.7790	5.99	-0.00	-0.750			
0.1772	11342.82	3.8570	3.8570	-0.7770	5.99	0.00	-0.750			
0.1796	11491.40	3.8540	3.8540	-0.7717	6.00	0.01	-0.750			
0.1819	11640.38	3.8510	3.8510	-0.7734	6.01	0.02	-0.750			
0.1842	11788.52	3.8480	3.8481	-0.7769	6.01	0.02	-0.750			
0.1865	11936.26	3.8450	3.8448	-0.7781	6.01	0.02	-0.750			
0.1889	12086.75	3.8420	3.8420	-0.7853	6.02	0.03	-0.750			
0.1912	12239.55	3.8390	3.8390	-0.7828	6.02	0.03	-0.750			
0.1936	12391.24	3.8360	3.8360	-0.7867	6.03	0.04	-0.750			
0.1960	12542.09	3.8330	3.8333	-0.7879	6.03	0.04	-0.750			
0.1983	12692.01	3.8300	3.8299	-0.7852	6.04	0.05	-0.750			
0.2006	12841.53	3.8270	3.8269	-0.7883	6.04	0.05	-0.750			
0.2030	12992.07	3.8240	3.8240	-0.7892	6.05	0.06	-0.750			
0.2054	13146.19	3.8210	3.8210	-0.7958	6.06	0.07	-0.750			
0.2078	13299.62	3.8180	3.8180	-0.7955	6.07	0.08	-0.750			
0.2102	13452.09	3.8150	3.8150	-0.7913	6.07	0.08	-0.750			
0.2126	13603.74	3.8120	3.8119	-0.7906	6.08	0.09	-0.750			
0.2149	13753.57	3.8090	3.8091	-0.7904	6.08	0.09	-0.750			
0.2173	13904.83	3.8060	3.8060	-0.7906	6.08	0.09	-0.750			
0.2197	14057.67	3.8030	3.8030	-0.7939	6.09	0.10	-0.750			
0.2220	14210.47	3.8000	3.8000	-0.7967	6.09	0.10	-0.750			
0.2244	14362.14	3.7970	3.7971	-0.8026	6.10	0.11	-0.750			
0.2268	14518.28	3.7940	3.7939	-0.8027	6.10	0.11	-0.750			
0.2293	14673.09	3.7910	3.7910	-0.7983	6.10	0.11	-0.750			
0.2317	14826.09	3.7880	3.7880	-0.7972	6.11	0.12	-0.750			
0.2341	14980.01	3.7850	3.7851	-0.7961	6.11	0.12	-0.750			
0.2364	15131.90	3.7820	3.7819	-0.7937	6.12	0.13	-0.750			
0.2388	15281.65	3.7790	3.7790	-0.7975	6.13	0.14	-0.750			
0.2412	15435.44	3.7760	3.7760	-0.7985	6.13	0.14	-0.750			
0.2436	15591.48	3.7730	3.7729	-0.8047	6.14	0.15	-0.750			
0.2460	15745.25	3.7700	3.7703	-0.8036	6.15	0.16	-0.750			
0.2484	15899.20	3.7670	3.7670	-0.8030	6.16	0.17	-0.750			
0.2508	16053.78	3.7640	3.7640	-0.8046	6.17	0.18	-0.750			
0.2532	16206.65	3.7610	3.7609	-0.8034	6.17	0.18	-0.750			
0.2557	16362.69	3.7580	3.7581	-0.8055	6.18	0.19	-0.750			
0.2581	16517.75	3.7550	3.7550	-0.8052	6.19	0.20	-0.750			
0.2605	16671.95	3.7520	3.7520	-0.8089	6.19	0.20	-0.750			
0.2629	16827.24	3.7490	3.7490	-0.8110	6.20	0.21	-0.750			
0.2653	16981.74	3.7460	3.7459	-0.8112	6.20	0.21	-0.750			
0.2678	17138.03	3.7430	3.7430	-0.8127	6.20	0.21	-0.750			
0.2702	17294.53	3.7400	3.7401	-0.8171	6.21	0.22	-0.750			
0.2727	17452.54	3.7370	3.7369	-0.8184	6.22	0.23	-0.750			
0.2751	17608.72	3.7340	3.7340	-0.8253	6.22	0.23	-0.750			
0.2776	17767.17	3.7310	3.7310	-0.8290	6.23	0.24	-0.750			
0.2801	17926.97	3.7280	3.7279	-0.8320	6.24	0.25	-0.750			
0.2826	18088.72	3.7250	3.7250	-0.8403	6.25	0.26	-0.750			
0.2852	18250.71	3.7220	3.7220	-0.8447	6.25	0.26	-0.750			
0.2877	18413.34	3.7190	3.7189	-0.8493	6.26	0.27	-0.750			
0.2903	18577.73	3.7160	3.7160	-0.8518	6.26	0.27	-0.750			
0.2928	18738.85	3.7130	3.7130	-0.8497	6.26	0.27	-0.750			
0.2954	18905.39	3.7100	3.7100	-0.8597	6.27	0.28	-0.750			
0.2980	19069.44	3.7070	3.7069	-0.8676	6.27	0.28	-0.750			
0.3006	19235.21	3.7040	3.7040	-0.8719	6.28	0.29	-0.750			
0.3032	19403.90	3.7010	3.7010	-0.8789	6.29	0.30	-0.750			
0.3058	19572.84	3.6980	3.6980	-0.8862	6.29	0.30	-0.750			
0.3085	19744.85	3.6950	3.6951	-0.8976	6.30	0.31	-0.750			
0.3112	19915.91	3.6920	3.6920	-0.9123	6.31	0.32	-0.750			
0.3140	20093.01	3.6890	3.6889	-0.9179	6.31	0.32	-0.750			
0.3167	20270.36	3.6860	3.6858	-0.9241	6.32	0.33	-0.750			
0.3195	20449.12	3.6830	3.6831	-0.9387	6.33	0.34	-0.750			
0.3224	20630.78	3.6800	3.6800	-0.9483	6.33	0.34	-0.750			
0.3252	20815.06	3.6770	3.6769	-0.9550	6.33	0.34	-0.750			
0.3281	20998.00	3.6740	3.6740	-0.9618	6.34	0.35	-0.750			
0.3309	21179.68	3.6710	3.6711	-0.9688	6.34	0.35	-0.750			
0.3339	21368.59	3.6680	3.6681	-0.9874	6.34	0.35	-0.750			
0.3368	21558.36	3.6650	3.6649	-0.9994	6.34	0.35	-0.750			
0.3399	21751.06	3.6620	3.6620	-1.0063	6.35	0.36	-0.750			
0.3429	21946.18	3.6590	3.6589	-1.0210	6.35	0.36	-0.750			
0.3460	22142.18	3.6560	3.6562	-1.0449	6.35	0.36	-0.750			
0.3491	22345.05	3.6530	3.6529	-1.0541	6.35	0.36	-0.750			
0.3523	22549.63	3.6500	3.6499	-1.0608	6.35	0.36	-0.750			
0.3556	22755.98	3.6470	3.6469	-1.0683	6.35	0.36	-0.750			
0.3588	22960.53	3.6440	3.6443	-1.0822	6.35	0.36	-0.750			
0.3620	23170.08	3.6410	3.6409	-1.0928	6.36	0.37	-0.750			
0.3653	23378.23	3.6380	3.6379	-1.0935	6.36	0.37	-0.750			
0.3685	23587.15	3.6350	3.6350	-1.1043	6.37	0.38	-0.750			
0.3719	23801.80	3.6320	3.6321	-1.1307	6.37	0.38	-0.750			
0.3753	24021.22	3.6290	3.6288	-1.1413	6.37	0.38	-0.750			
0.3788	24242.45	3.6260	3.6259	-1.1539	6.38	0.39	-0.750			
0.3822	24463.68	3.6230	3.6230	-1.1652	6.38	0.39	-0.750			
0.3858	24690.17	3.6200	3.6199	-1.1875	6.38	0.39	-0.750			
0.3894	24921.26	3.6170	3.6169	-1.1987	6.38	0.39	-0.750			
0.3930	25150.63	3.6140	3.6139	-1.2055	6.39	0.40	-0.750			
0.3966	25381.45	3.6110	3.6112	-1.2199	6.39	0.40	-0.750			
0.4004	25622.93	3.6080	3.6079	-1.2449	6.39	0.40	-0.750			
0.4041	25862.48	3.6050	3.6049	-1.2521	6.39	0.40	-0.750			
0.4078	26101.60	3.6020	3.6020	-1.2621	6.39	0.40	-0.750			
0.4117	26348.09	3.5990	3.5990	-1.2784	6.40	0.41	-0.750	0.468	1.110	
0.4155	26593.98	3.5960	3.5958	-1.2906	6.40	0.41	-0.750			
0.4194	26839.62	3.5930	3.5929	-1.3098	6.41	0.42	-0.750			
0.4233	27092.09	3.5900	3.5900	-1.3202	6.41	0.42	-0.750			
0.4273	27347.14	3.5870	3.5870	-1.3361	6.41	0.42	-0.750			
0.4314	27608.81	3.5840	3.5839	-1.3566	6.41	0.42	-0.750			
0.4355	27868.98	3.5810	3.5810	-1.3696	6.41	0.42	-0.750			
0.4396	28135.26	3.5780	3.5780	-1.3882	6.41	0.42	-0.750			
0.4438	28402.66	3.5750	3.5749	-1.4057	6.42	0.43	-0.750			
0.4480	28673.42	3.5720	3.5720	-1.4195	6.42	0.43	-0.750			
0.4524	28952.89	3.5690	3.5690	-1.4388	6.43	0.44	-0.750			
0.4567	29229.58	3.5660	3.5659	-1.4583	6.43	0.44	-0.750			
0.4611	29511.51	3.5630	3.5629	-1.4643	6.43	0.44	-0.750			
0.4655	29793.74	3.5600	3.5599	-1.4854	6.43	0.44	-0.750			
0.4700	30079.05	3.5570	3.5569	-1.5046	6.43	0.44	-0.750			
0.4745	30366.80	3.5540	3.5540	-1.5201	6.43	0.44	-0.750			
0.4792	30666.86	3.5510	3.5511	-1.5389	6.43	0.44	-0.750			
0.4838	30964.04	3.5480	3.5482	-1.5614	6.43	0.44	-0.750			
0.4885	31265.65	3.5450	3.5448	-1.5613	6.43	0.44	-0.750			
0.4933	31570.61	3.5420	3.5420	-1.5898	6.43	0.44	-0.750			
0.4981	31875.66	3.5390	3.5389	-1.6022	6.43	0.44	-0.750			
0.5029	32184.56	3.5360	3.5359	-1.6167	6.44	0.45	-0.750			
0.5078	32497.28	3.5330	3.5332	-1.6045	6.45	0.46	-0.750			
0.5125	32801.64	3.5300	3.5300	-1.6107	6.45	0.46	-0.750			
0.5174	33113.47	3.5270	3.5269	-1.6428	6.45	0.46	-0.750			
0.5223	33428.49	3.5240	3.5240	-1.6515	6.45	0.46	-0.750			
0.5273	33746.53	3.5210	3.5211	-1.6561	6.45	0.46	-0.750			
0.5323	34069.06	3.5180	3.5181	-1.6664	6.46	0.47	-0.750			
0.5375	34396.84	3.5150	3.5149	-1.6869	6.46	0.47	-0.750			
0.5424	34712.26	3.5120	3.5119	-1.6703	6.47	0.48	-0.750			
0.5474	35034.46	3.5090	3.5090	-1.6789	6.47	0.48	-0.750			
0.5524	35355.24	3.5060	3.5062	-1.6830	6.47	0.48	-0.750			
0.5575	35681.13	3.5030	3.5030	-1.6794	6.47	0.48	-0.750			
0.5626	36003.60	3.5000	3.4999	-1.6689	6.47	0.48	-0.750			
0.5676	36327.60	3.4970	3.4969	-1.6735	6.48	0.49	-0.750			
0.5727	36650.77	3.4940	3.4939	-1.6725	6.48	0.49	-0.750			
0.5776	36968.05	3.4910	3.4910	-1.6619	6.49	0.50	-0.750			
0.5826	37287.89	3.4880	3.4882	-1.6471	6.49	0.50	-0.750			
0.5876	37606.91	3.4850	3.4850	-1.6374	6.50	0.51	-0.750			
0.5925	37919.50	3.4820	3.4818	-1.6465	6.50	0.51	-0.750			
0.5975	38236.94	3.4790	3.4789	-1.6158	6.51	0.52	-0.750			
0.6022	38542.91	3.4760	3.4760	-1.6005	6.52	0.53	-0.750			
0.6070	38849.73	3.4730	3.4732	-1.5853	6.54	0.55	-0.750			
0.6118	39154.25	3.4700	3.4698	-1.5678	6.54	0.55	-0.750			
0.6165	39456.98	3.4670	3.4671	-1.5543	6.55	0.56	-0.750			
0.6211	39750.37	3.4640	3.4641	-1.5309	6.55	0.56	-0.750			
0.6256	40041.44	3.4610	3.4608	-1.5043	6.56	0.57	-0.750			
0.6302	40331.98	3.4580	3.4581	-1.4892	6.58	0.59	-0.750			
0.6346	40613.15	3.4550	3.4551	-1.4674	6.59	0.60	-0.750			
0.6390	40897.80	3.4520	3.4519	-1.4543	6.60	0.61	-0.750			
0.6433	41173.81	3.4490	3.4489	-1.4332	6.61	0.62	-0.750			
0.6476	41446.26	3.4460	3.4461	-1.4033	6.62	0.63	-0.750			
0.6518	41715.52	3.4430	3.4429	-1.3819	6.63	0.64	-0.750			
0.6559	41977.12	3.4400	3.4400	-1.3706	6.64	0.65	-0.750			
0.6599	42236.46	3.4370	3.4370	-1.3345	6.65	0.66	-0.750			
0.6640	42495.23	3.4340	3.4338	-1.3134	6.67	0.68	-0.750			
0.6679	42744.72	3.4310	3.4313	-1.2863	6.68	0.69	-0.750			
0.6717	42988.24	3.4280	3.4279	-1.2554	6.69	0.70	-0.750			
0.6754	43228.46	3.4250	3.4248	-1.2292	6.71	0.72	-0.750			
0.6790	43457.15	3.4220	3.4220	-1.1899	6.72	0.73	-0.750			
0.6825	43679.78	3.4190	3.4190	-1.1605	6.74	0.75	-0.750			
0.6861	43909.38	3.4160	3.4159	-1.1522	6.75	0.76	-0.750			
0.6895	44127.16	3.4130	3.4130	-1.1177	6.76	0.77	-0.750			
0.6928	44336.77	3.4100	3.4099	-1.0862	6.78	0.79	-0.750			
0.6960	44544.16	3.4070	3.4072	-1.0554	6.79	0.80	-0.750			
0.6991	44744.15	3.4040	3.4040	-1.0314	6.80	0.81	-0.750			
0.7022	44939.29	3.4010	3.4010	-1.0017	6.82	0.83	-0.750			
0.7051	45128.21	3.3980	3.3980	-0.9694	6.83	0.84	-0.750			
0.7080	45312.37	3.3950	3.3950	-0.9453	6.85	0.86	-0.750			
0.7108	45490.09	3.3920	3.3920	-0.9197	6.86	0.87	-0.750			
0.7135	45662.66	3.3890	3.3889	-0.8918	6.88	0.89	-0.750			
0.7161	45832.14	3.3860	3.3860	-0.8684	6.90	0.91	-0.750			
0.7187	45994.35	3.3830	3.3830	-0.8423	6.91	0.92	-0.750			
0.7212	46156.72	3.3800	3.3803	-0.8250	6.93	0.94	-0.750			
0.7236	46313.49	3.3770	3.3770	-0.8013	6.95	0.96	-0.750			
0.7260	46464.64	3.3740	3.3740	-0.7785	6.96	0.97	-0.750			
0.7283	46611.87	3.3710	3.3710	-0.7548	6.98	0.99	-0.750			
