Ah_balance (normalized)	Ah_balance (mAh)	Voltage - fit (V)	Voltage -  interpolate (V)	dQ/dV (1/V)	Temperature (°C)	Temperature - diff (°C)	Current (C)	R_DC 0ms (mOhm)	R_DC 50ms (mOhm)	R_DC 50 ms PEC (mOhm)
0.1821	11655.79	4.0800	4.0801	0.7476	7.11	1.14	0.750			
0.1844	11802.54	4.0770	4.0771	0.7667	7.11	1.14	0.750			
0.1867	11950.51	4.0740	4.0740	0.7742	7.10	1.13	0.750			
0.1891	12100.34	4.0710	4.0710	0.7758	7.10	1.13	0.750			
0.1914	12249.82	4.0680	4.0680	0.7807	7.10	1.13	0.750			
0.1938	12400.12	4.0650	4.0651	0.7820	7.09	1.12	0.750			
0.1961	12549.10	4.0620	4.0618	0.7919	7.09	1.12	0.750			
0.1985	12701.62	4.0590	4.0591	0.7966	7.09	1.12	0.750			
0.2009	12856.15	4.0560	4.0559	0.7998	7.09	1.12	0.750			
0.2033	13010.79	4.0530	4.0530	0.8037	7.08	1.11	0.750			
0.2057	13165.22	4.0500	4.0502	0.8063	7.08	1.11	0.750			
0.2081	13321.15	4.0470	4.0468	0.8068	7.08	1.11	0.750			
0.2106	13476.28	4.0440	4.0441	0.8084	7.08	1.11	0.750			
0.2130	13631.18	4.0410	4.0410	0.8019	7.07	1.10	0.750			
0.2154	13786.40	4.0380	4.0380	0.8074	7.07	1.10	0.750			
0.2178	13940.59	4.0350	4.0351	0.8097	7.07	1.10	0.750			
0.2202	14094.29	4.0320	4.0319	0.8092	7.06	1.09	0.750			
0.2226	14248.87	4.0290	4.0290	0.8126	7.06	1.09	0.750			
0.2251	14407.40	4.0260	4.0260	0.8113	7.05	1.08	0.750			
0.2275	14561.52	4.0230	4.0230	0.8197	7.04	1.07	0.750			
0.2300	14721.14	4.0200	4.0199	0.8282	7.04	1.07	0.750			
0.2325	14879.14	4.0170	4.0171	0.8267	7.03	1.06	0.750			
0.2350	15039.20	4.0140	4.0141	0.8294	7.03	1.06	0.750			
0.2375	15201.83	4.0110	4.0111	0.8265	7.02	1.05	0.750			
0.2400	15359.34	4.0080	4.0080	0.8291	7.02	1.05	0.750			
0.2425	15517.60	4.0050	4.0050	0.8356	7.02	1.05	0.750			
0.2449	15674.27	4.0020	4.0020	0.8320	7.01	1.04	0.750			
0.2474	15835.53	3.9990	3.9990	0.8396	7.01	1.04	0.750			
0.2500	16000.36	3.9960	3.9961	0.8418	7.00	1.03	0.750			
0.2525	16160.71	3.9930	3.9930	0.8526	6.99	1.02	0.750			
0.2551	16325.15	3.9900	3.9900	0.8656	6.99	1.02	0.750			
0.2577	16489.69	3.9870	3.9869	0.8636	6.98	1.01	0.750			
0.2603	16657.73	3.9840	3.9840	0.8718	6.98	1.01	0.750			
0.2629	16828.30	3.9810	3.9811	0.8745	6.98	1.01	0.750			
0.2656	16997.15	3.9780	3.9781	0.8763	6.97	1.00	0.750			
0.2682	17164.39	3.9750	3.9750	0.8792	6.97	1.00	0.750			
0.2708	17333.10	3.9720	3.9716	0.8817	6.97	1.00	0.750			
0.2735	17502.83	3.9690	3.9690	0.8783	6.96	0.99	0.750			
0.2761	17673.32	3.9660	3.9661	0.8846	6.95	0.98	0.750			
0.2788	17844.18	3.9630	3.9631	0.8936	6.95	0.98	0.750			
0.2815	18015.39	3.9600	3.9600	0.8994	6.94	0.97	0.750			
0.2842	18185.85	3.9570	3.9568	0.8997	6.93	0.96	0.750			
0.2869	18359.80	3.9540	3.9540	0.8987	6.92	0.95	0.750			
0.2896	18534.03	3.9510	3.9511	0.9104	6.92	0.95	0.750			
0.2923	18708.84	3.9480	3.9481	0.9203	6.92	0.95	0.750			
0.2951	18885.94	3.9450	3.9449	0.9244	6.91	0.94	0.750			
0.2979	19065.41	3.9420	3.9420	0.9243	6.91	0.94	0.750			
0.3007	19242.06	3.9390	3.9391	0.9314	6.90	0.93	0.750			
0.3035	19422.49	3.9360	3.9361	0.9402	6.89	0.92	0.750			
0.3063	19603.32	3.9330	3.9331	0.9542	6.89	0.92	0.750			
0.3091	19784.53	3.9300	3.9299	0.9587	6.88	0.91	0.750			
0.3120	19969.49	3.9270	3.9270	0.9634	6.87	0.90	0.750			
0.3149	20155.86	3.9240	3.9240	0.9778	6.86	0.89	0.750			
0.3179	20346.97	3.9210	3.9211	0.9822	6.86	0.89	0.750			
0.3209	20536.24	3.9180	3.9176	0.9843	6.85	0.88	0.750			
0.3238	20725.39	3.9150	3.9151	0.9894	6.85	0.88	0.750			
0.3268	20914.88	3.9120	3.9120	0.9937	6.84	0.87	0.750			
0.3298	21106.34	3.9090	3.9090	1.0037	6.84	0.87	0.750			
0.3328	21297.62	3.9060	3.9059	1.0099	6.83	0.86	0.750			
0.3359	21495.49	3.9030	3.9030	1.0159	6.82	0.85	0.750			
0.3389	21691.70	3.9000	3.9000	1.0393	6.82	0.85	0.750			
0.3421	21891.97	3.8970	3.8971	1.0499	6.81	0.84	0.750			
0.3452	22095.02	3.8940	3.8938	1.0626	6.80	0.83	0.750			
0.3485	22300.96	3.8910	3.8912	1.0658	6.79	0.82	0.750			
0.3516	22504.89	3.8880	3.8881	1.0782	6.79	0.82	0.750			
0.3549	22712.71	3.8850	3.8851	1.0899	6.78	0.81	0.750			
0.3582	22924.46	3.8820	3.8817	1.1050	6.77	0.80	0.750			
0.3615	23134.95	3.8790	3.8791	1.1123	6.77	0.80	0.750			
0.3648	23350.28	3.8760	3.8761	1.1288	6.76	0.79	0.750			
0.3683	23569.11	3.8730	3.8730	1.1490	6.75	0.78	0.750			
0.3717	23791.97	3.8700	3.8700	1.1513	6.75	0.78	0.750			
0.3752	24013.51	3.8670	3.8670	1.1729	6.74	0.77	0.750			
0.3788	24240.37	3.8640	3.8641	1.1900	6.73	0.76	0.750			
0.3824	24471.68	3.8610	3.8609	1.2013	6.71	0.74	0.750			
0.3860	24702.83	3.8580	3.8580	1.2254	6.70	0.73	0.750			
0.3897	24938.91	3.8550	3.8551	1.2430	6.69	0.72	0.750			
0.3935	25180.87	3.8520	3.8520	1.2566	6.68	0.71	0.750			
0.3973	25425.84	3.8490	3.8490	1.2832	6.67	0.70	0.750			
0.4011	25672.22	3.8460	3.8460	1.2943	6.65	0.68	0.750			
0.4050	25919.10	3.8430	3.8430	1.3362	6.64	0.67	0.750			
0.4091	26179.90	3.8400	3.8399	1.3678	6.63	0.66	0.750			
0.4132	26442.73	3.8370	3.8371	1.4000	6.62	0.65	0.750	0.374	0.913	
0.4175	26721.58	3.8340	3.8342	1.4283	6.62	0.65	0.750			
0.4219	26999.04	3.8310	3.8311	1.4531	6.61	0.64	0.750			
0.4263	27281.46	3.8280	3.8280	1.4615	6.58	0.61	0.750			
0.4306	27559.88	3.8250	3.8251	1.4889	6.56	0.59	0.750			
0.4351	27844.62	3.8220	3.8219	1.5144	6.55	0.58	0.750			
0.4397	28143.39	3.8190	3.8188	1.5570	6.54	0.57	0.750			
0.4444	28443.38	3.8160	3.8161	1.5895	6.53	0.56	0.750			
0.4494	28759.13	3.8130	3.8129	1.6201	6.52	0.55	0.750			
0.4543	29073.47	3.8100	3.8100	1.6534	6.50	0.53	0.750			
0.4592	29386.33	3.8070	3.8070	1.6802	6.49	0.52	0.750			
0.4643	29716.38	3.8040	3.8039	1.7064	6.47	0.50	0.750			
0.4694	30042.88	3.8010	3.8011	1.7461	6.46	0.49	0.750			
0.4747	30381.88	3.7980	3.7983	1.7809	6.44	0.47	0.750			
0.4802	30731.95	3.7950	3.7950	1.8115	6.42	0.45	0.750			
0.4857	31085.91	3.7920	3.7920	1.8492	6.40	0.43	0.750			
0.4913	31440.99	3.7890	3.7891	1.8624	6.39	0.42	0.750			
0.4969	31803.48	3.7860	3.7858	1.8817	6.37	0.40	0.750			
0.5026	32166.07	3.7830	3.7829	1.9254	6.35	0.38	0.750			
0.5085	32541.06	3.7800	3.7800	1.9472	6.33	0.36	0.750			
0.5143	32916.17	3.7770	3.7770	1.9852	6.31	0.34	0.750			
0.5204	33305.83	3.7740	3.7742	2.0486	6.29	0.32	0.750			
0.5266	33703.71	3.7710	3.7709	2.0912	6.27	0.30	0.750			
0.5330	34109.83	3.7680	3.7679	2.0977	6.25	0.28	0.750			
0.5395	34524.96	3.7650	3.7650	2.1440	6.23	0.26	0.750			
0.5458	34929.02	3.7620	3.7619	2.1180	6.21	0.24	0.750			
0.5520	35327.96	3.7590	3.7590	2.1330	6.19	0.22	0.750			
0.5585	35744.57	3.7560	3.7561	2.1843	6.17	0.20	0.750			
0.5652	36170.95	3.7530	3.7529	2.2244	6.15	0.18	0.750			
0.5719	36601.33	3.7500	3.7501	2.2337	6.13	0.16	0.750			
0.5787	37036.67	3.7470	3.7470	2.2610	6.11	0.14	0.750			
0.5853	37460.97	3.7440	3.7440	2.3245	6.10	0.13	0.750			
0.5924	37913.78	3.7410	3.7409	2.4433	6.08	0.11	0.750			
0.6000	38399.86	3.7380	3.7379	2.5309	6.06	0.09	0.750			
0.6077	38895.23	3.7350	3.7349	2.5764	6.03	0.06	0.750			
0.6154	39388.36	3.7320	3.7321	2.6228	6.02	0.05	0.750			
0.6233	39891.42	3.7290	3.7290	2.6497	6.00	0.03	0.750			
0.6315	40414.17	3.7260	3.7261	2.6845	5.98	0.01	0.750			
0.6396	40936.65	3.7230	3.7230	2.6952	5.98	0.01	0.750			
0.6477	41450.53	3.7200	3.7199	2.6488	5.96	-0.01	0.750			
0.6557	41962.84	3.7170	3.7170	2.5076	5.94	-0.03	0.750			
0.6631	42436.44	3.7140	3.7139	2.3377	5.94	-0.03	0.750			
0.6698	42864.95	3.7110	3.7109	2.1330	5.95	-0.02	0.750			
0.6759	43255.72	3.7080	3.7078	1.9111	5.94	-0.03	0.750			
0.6813	43602.45	3.7050	3.7055	1.6991	5.93	-0.04	0.750			
0.6857	43886.71	3.7020	3.7021	1.4595	5.93	-0.04	0.750			
0.6899	44152.49	3.6990	3.6990	1.3091	5.94	-0.03	0.750			
0.6934	44377.30	3.6960	3.6960	1.1594	5.94	-0.03	0.750			
0.6966	44580.15	3.6930	3.6928	1.0579	5.94	-0.03	0.750			
0.6996	44772.66	3.6900	3.6901	0.9799	5.94	-0.03	0.750			
0.7023	44949.18	3.6870	3.6871	0.9209	5.95	-0.02	0.750			
0.7050	45121.45	3.6840	3.6838	0.8755	5.95	-0.02	0.750			
0.7075	45281.36	3.6810	3.6810	0.8281	5.95	-0.02	0.750			
0.7099	45435.65	3.6780	3.6780	0.7925	5.95	-0.02	0.750			
0.7123	45588.14	3.6750	3.6750	0.7588	5.96	-0.01	0.750			
0.7145	45730.68	3.6720	3.6720	0.7146	5.96	-0.01	0.750			
0.7166	45864.73	3.6690	3.6690	0.6720	5.96	-0.01	0.750			
0.7186	45988.35	3.6660	3.6660	0.6243	5.97	-0.00	0.750			
0.7204	46103.68	3.6630	3.6628	0.5797	5.97	-0.00	0.750			
0.7220	46209.62	3.6600	3.6601	0.5349	5.97	0.00	0.750			
0.7236	46307.52	3.6570	3.6570	0.4936	5.97	0.00	0.750			
0.7250	46398.49	3.6540	3.6540	0.4559	5.98	0.01	0.750			
0.7263	46482.94	3.6510	3.6509	0.4165	5.98	0.01	0.750			
0.7275	46558.67	3.6480	3.6481	0.3768	5.98	0.01	0.750			
0.7285	46626.95	3.6450	3.6449	0.3401	5.98	0.01	0.750			
0.7295	46688.46	3.6420	3.6420	0.3037	5.98	0.01	0.750			
0.7304	46742.69	3.6390	3.6389	0.2663	5.98	0.01	0.750			
0.7311	46790.67	3.6360	3.6360	0.2278	5.99	0.02	0.750			
0.7317	46831.50	3.6330	3.6330	0.1918	5.99	0.02	0.750			
0.7323	46865.73	3.6300	3.6301	0.1549	5.99	0.02	0.750			
0.7327	46892.45	3.6270	3.6271	0.1143	5.99	0.02	0.750			
0.7330	46910.35	3.6240	3.6246	0.0732	5.99	0.02	0.750			
0.7331	46920.45	3.6210	3.6221	0.0266	5.99	0.02	0.750			
