Ah_balance (normalized)	Ah_balance (mAh)	Voltage - fit (V)	Voltage -  interpolate (V)	dQ/dV (1/V)	Temperature (°C)	Temperature - diff (°C)	Current (C)	R_DC 0ms (mOhm)	R_DC 50ms (mOhm)	R_DC 50 ms PEC (mOhm)
0.1784	11415.65	4.0820	4.0820	0.7257	7.41	1.42	0.750			
0.1806	11560.00	4.0790	4.0790	0.7574	7.40	1.41	0.750			
0.1829	11706.48	4.0760	4.0757	0.7700	7.39	1.40	0.750			
0.1853	11857.58	4.0730	4.0730	0.7743	7.38	1.39	0.750			
0.1876	12009.37	4.0700	4.0700	0.7700	7.37	1.38	0.750			
0.1899	12156.20	4.0670	4.0670	0.7751	7.36	1.37	0.750			
0.1923	12304.89	4.0640	4.0641	0.7773	7.35	1.36	0.750			
0.1946	12451.42	4.0610	4.0609	0.7747	7.34	1.35	0.750			
0.1969	12600.67	4.0580	4.0580	0.7773	7.34	1.35	0.750			
0.1992	12750.94	4.0550	4.0552	0.7785	7.33	1.34	0.750			
0.2016	12901.35	4.0520	4.0519	0.7897	7.33	1.34	0.750			
0.2040	13055.66	4.0490	4.0490	0.7955	7.32	1.33	0.750			
0.2064	13206.44	4.0460	4.0461	0.7931	7.31	1.32	0.750			
0.2087	13359.22	4.0430	4.0430	0.7971	7.31	1.32	0.750			
0.2112	13514.34	4.0400	4.0400	0.7989	7.30	1.31	0.750			
0.2135	13666.95	4.0370	4.0370	0.8051	7.29	1.30	0.750			
0.2160	13821.32	4.0340	4.0340	0.8054	7.28	1.29	0.750			
0.2184	13975.34	4.0310	4.0311	0.8061	7.28	1.29	0.750			
0.2208	14131.51	4.0280	4.0279	0.8128	7.27	1.28	0.750			
0.2232	14287.10	4.0250	4.0251	0.8187	7.27	1.28	0.750			
0.2257	14444.82	4.0220	4.0220	0.8247	7.26	1.27	0.750			
0.2282	14603.61	4.0190	4.0190	0.8308	7.26	1.27	0.750			
0.2307	14764.53	4.0160	4.0159	0.8327	7.25	1.26	0.750			
0.2332	14926.69	4.0130	4.0131	0.8399	7.25	1.26	0.750			
0.2358	15088.35	4.0100	4.0100	0.8389	7.24	1.25	0.750			
0.2383	15250.14	4.0070	4.0070	0.8312	7.23	1.24	0.750			
0.2407	15407.47	4.0040	4.0040	0.8291	7.22	1.23	0.750			
0.2432	15563.67	4.0010	4.0011	0.8349	7.22	1.23	0.750			
0.2457	15722.50	3.9980	3.9978	0.8399	7.21	1.22	0.750			
0.2482	15886.01	3.9950	3.9951	0.8452	7.20	1.21	0.750			
0.2508	16049.83	3.9920	3.9921	0.8559	7.19	1.20	0.750			
0.2534	16217.37	3.9890	3.9890	0.8643	7.18	1.19	0.750			
0.2560	16383.43	3.9860	3.9860	0.8648	7.18	1.19	0.750			
0.2586	16548.98	3.9830	3.9829	0.8664	7.17	1.18	0.750			
0.2612	16716.57	3.9800	3.9800	0.8662	7.16	1.17	0.750			
0.2638	16883.02	3.9770	3.9770	0.8717	7.15	1.16	0.750			
0.2664	17050.13	3.9740	3.9740	0.8796	7.14	1.15	0.750			
0.2690	17218.22	3.9710	3.9711	0.8812	7.13	1.14	0.750			
0.2717	17388.68	3.9680	3.9680	0.8883	7.13	1.14	0.750			
0.2744	17559.73	3.9650	3.9650	0.8897	7.12	1.13	0.750			
0.2770	17730.91	3.9620	3.9621	0.8989	7.11	1.12	0.750			
0.2798	17904.62	3.9590	3.9591	0.9071	7.10	1.11	0.750			
0.2825	18078.12	3.9560	3.9557	0.9081	7.09	1.10	0.750			
0.2852	18254.39	3.9530	3.9531	0.9080	7.08	1.09	0.750			
0.2880	18429.30	3.9500	3.9500	0.9188	7.07	1.08	0.750			
0.2907	18606.77	3.9470	3.9470	0.9275	7.06	1.07	0.750			
0.2935	18786.08	3.9440	3.9441	0.9315	7.06	1.07	0.750			
0.2963	18961.65	3.9410	3.9410	0.9330	7.05	1.06	0.750			
0.2991	19142.13	3.9380	3.9381	0.9389	7.04	1.05	0.750			
0.3019	19323.53	3.9350	3.9351	0.9456	7.04	1.05	0.750			
0.3048	19505.09	3.9320	3.9320	0.9518	7.03	1.04	0.750			
0.3076	19686.81	3.9290	3.9289	0.9591	7.03	1.04	0.750			
0.3105	19870.90	3.9260	3.9261	0.9721	7.02	1.03	0.750			
0.3134	20058.70	3.9230	3.9230	0.9717	7.00	1.01	0.750			
0.3163	20245.36	3.9200	3.9200	0.9805	6.99	1.00	0.750			
0.3193	20434.62	3.9170	3.9172	0.9876	6.98	0.99	0.750			
0.3223	20625.55	3.9140	3.9141	1.0008	6.96	0.97	0.750			
0.3253	20818.72	3.9110	3.9110	1.0094	6.95	0.96	0.750			
0.3283	21013.76	3.9080	3.9081	1.0208	6.94	0.95	0.750			
0.3315	21214.19	3.9050	3.9049	1.0416	6.93	0.94	0.750			
0.3345	21410.41	3.9020	3.9021	1.0334	6.92	0.93	0.750			
0.3377	21611.49	3.8990	3.8989	1.0399	6.91	0.92	0.750			
0.3409	21817.97	3.8960	3.8959	1.0068	6.90	0.91	0.750			
0.3439	22011.38	3.8930	3.8930	0.9879	6.89	0.90	0.750			
0.3468	22195.46	3.8900	3.8905	0.9831	6.88	0.89	0.750			
0.3496	22372.79	3.8870	3.8865	0.9906	6.87	0.88	0.750			
0.3525	22557.67	3.8840	3.8838	1.0215	6.87	0.88	0.750			
0.3555	22752.62	3.8810	3.8811	1.0536	6.86	0.87	0.750			
0.3588	22965.06	3.8780	3.8779	1.1062	6.86	0.87	0.750			
0.3623	23186.89	3.8750	3.8751	1.1324	6.84	0.85	0.750			
0.3657	23406.01	3.8720	3.8722	1.1511	6.83	0.84	0.750			
0.3692	23628.72	3.8690	3.8689	1.1633	6.81	0.82	0.750			
0.3727	23851.19	3.8660	3.8660	1.1723	6.80	0.81	0.750			
0.3762	24076.15	3.8630	3.8631	1.1876	6.80	0.81	0.750			
0.3798	24308.48	3.8600	3.8601	1.2094	6.79	0.80	0.750			
0.3836	24547.76	3.8570	3.8570	1.2330	6.78	0.79	0.750			
0.3872	24779.87	3.8540	3.8540	1.2289	6.77	0.78	0.750			
0.3910	25022.20	3.8510	3.8510	1.2332	6.75	0.76	0.750			
0.3947	25259.08	3.8480	3.8477	1.2451	6.74	0.75	0.750			
0.3983	25490.36	3.8450	3.8452	1.2965	6.73	0.74	0.750			
0.4022	25741.67	3.8420	3.8421	1.3433	6.72	0.73	0.750			
0.4064	26007.69	3.8390	3.8389	1.3721	6.70	0.71	0.750	0.430	0.894	
0.4106	26276.07	3.8360	3.8364	1.4135	6.69	0.70	0.750			
0.4149	26555.68	3.8330	3.8332	1.4508	6.68	0.69	0.750			
0.4194	26841.70	3.8300	3.8298	1.4558	6.66	0.67	0.750			
0.4235	27105.96	3.8270	3.8271	1.5081	6.65	0.66	0.750			
0.4280	27394.61	3.8240	3.8244	1.5721	6.64	0.65	0.750			
0.4328	27700.04	3.8210	3.8206	1.6497	6.63	0.64	0.750			
0.4380	28030.98	3.8180	3.8176	1.6896	6.61	0.62	0.750			
0.4432	28363.14	3.8150	3.8155	1.7035	6.60	0.61	0.750			
0.4486	28712.08	3.8120	3.8115	1.7034	6.58	0.59	0.750			
0.4536	29029.25	3.8090	3.8091	1.7400	6.56	0.57	0.750			
0.4585	29346.03	3.8060	3.8059	1.6529	6.55	0.56	0.750			
0.4636	29668.87	3.8030	3.8029	1.6759	6.53	0.54	0.750			
0.4685	29981.08	3.8000	3.8002	1.6911	6.52	0.53	0.750			
0.4736	30308.25	3.7970	3.7968	1.7204	6.50	0.51	0.750			
0.4788	30644.79	3.7940	3.7939	1.7405	6.48	0.49	0.750			
0.4842	30987.83	3.7910	3.7909	1.7996	6.47	0.48	0.750			
0.4897	31340.55	3.7880	3.7879	1.8262	6.45	0.46	0.750			
0.4952	31695.20	3.7850	3.7847	1.8165	6.43	0.44	0.750			
0.5005	32033.99	3.7820	3.7822	1.8275	6.41	0.42	0.750			
0.5061	32390.19	3.7790	3.7791	1.8974	6.38	0.39	0.750			
0.5118	32758.27	3.7760	3.7761	1.8729	6.36	0.37	0.750			
0.5175	33120.49	3.7730	3.7733	1.9039	6.35	0.36	0.750			
0.5232	33487.67	3.7700	3.7700	1.9174	6.34	0.35	0.750			
0.5290	33854.99	3.7670	3.7671	1.9109	6.32	0.33	0.750			
0.5345	34210.82	3.7640	3.7641	1.9159	6.30	0.31	0.750			
0.5405	34589.00	3.7610	3.7611	1.9275	6.29	0.30	0.750			
0.5461	34952.46	3.7580	3.7579	1.9429	6.27	0.28	0.750			
0.5520	35328.11	3.7550	3.7546	2.0304	6.25	0.26	0.750			
0.5583	35732.53	3.7520	3.7519	2.0431	6.23	0.24	0.750			
0.5645	36128.26	3.7490	3.7489	2.0727	6.21	0.22	0.750			
0.5710	36541.04	3.7460	3.7462	2.1098	6.19	0.20	0.750			
0.5774	36950.46	3.7430	3.7432	2.1623	6.17	0.18	0.750			
0.5838	37361.31	3.7400	3.7406	2.2118	6.15	0.16	0.750			
0.5905	37792.75	3.7370	3.7371	2.2474	6.13	0.14	0.750			
0.5976	38244.44	3.7340	3.7340	2.3133	6.11	0.12	0.750			
0.6044	38681.93	3.7310	3.7310	2.3466	6.09	0.10	0.750			
0.6116	39142.98	3.7280	3.7278	2.4023	6.07	0.08	0.750			
0.6189	39606.76	3.7250	3.7252	2.4095	6.06	0.07	0.750			
0.6263	40083.23	3.7220	3.7220	2.4034	6.05	0.06	0.750			
0.6333	40528.53	3.7190	3.7190	2.2252	6.03	0.04	0.750			
0.6399	40953.68	3.7160	3.7158	2.0761	6.02	0.03	0.750			
0.6459	41337.37	3.7130	3.7127	1.8701	6.01	0.02	0.750			
0.6510	41663.73	3.7100	3.7102	1.6481	6.01	0.02	0.750			
0.6557	41961.75	3.7070	3.7071	1.4918	6.00	0.01	0.750			
0.6598	42227.05	3.7040	3.7042	1.3389	6.00	0.01	0.750			
0.6634	42460.34	3.7010	3.7011	1.2081	6.00	0.01	0.750			
0.6669	42683.04	3.6980	3.6980	1.1322	5.99	0.00	0.750			
0.6701	42887.38	3.6950	3.6947	1.0624	5.99	0.00	0.750			
0.6731	43080.54	3.6920	3.6920	0.9935	5.99	-0.00	0.750			
0.6760	43266.73	3.6890	3.6891	0.9575	5.99	-0.00	0.750			
0.6788	43444.49	3.6860	3.6860	0.9178	5.98	-0.01	0.750			
0.6815	43616.70	3.6830	3.6830	0.8829	5.98	-0.01	0.750			
0.6841	43783.53	3.6800	3.6800	0.8541	5.98	-0.01	0.750			
0.6866	43943.67	3.6770	3.6770	0.8242	5.98	-0.01	0.750			
0.6890	44098.95	3.6740	3.6740	0.8047	5.98	-0.01	0.750			
0.6915	44253.21	3.6710	3.6709	0.7768	5.97	-0.02	0.750			
0.6937	44398.54	3.6680	3.6680	0.7420	5.97	-0.02	0.750			
0.6959	44538.61	3.6650	3.6651	0.7148	5.97	-0.02	0.750			
0.6980	44673.64	3.6620	3.6621	0.6827	5.97	-0.02	0.750			
0.7000	44801.81	3.6590	3.6589	0.6510	5.98	-0.01	0.750			
0.7019	44923.52	3.6560	3.6559	0.6160	5.98	-0.01	0.750			
0.7037	45036.73	3.6530	3.6532	0.5821	5.98	-0.01	0.750			
0.7054	45147.21	3.6500	3.6500	0.5606	5.99	-0.00	0.750			
0.7071	45252.60	3.6470	3.6469	0.5283	5.99	-0.00	0.750			
0.7086	45350.76	3.6440	3.6439	0.4947	5.99	0.00	0.750			
0.7101	45444.52	3.6410	3.6412	0.4620	5.99	0.00	0.750			
0.7114	45529.71	3.6380	3.6380	0.4247	6.00	0.01	0.750			
0.7126	45607.99	3.6350	3.6350	0.3891	6.00	0.01	0.750			
0.7137	45677.31	3.6320	3.6321	0.3502	6.00	0.01	0.750			
0.7147	45740.44	3.6290	3.6290	0.3135	6.00	0.01	0.750			
0.7156	45798.55	3.6260	3.6260	0.2819	6.00	0.01	0.750			
0.7164	45850.50	3.6230	3.6228	0.2402	6.00	0.01	0.750			
0.7171	45894.77	3.6200	3.6201	0.2053	6.00	0.01	0.750			
0.7177	45930.37	3.6170	3.6170	0.1626	6.01	0.02	0.750			
0.7181	45957.99	3.6140	3.6142	0.1192	6.01	0.02	0.750			
0.7184	45977.45	3.6110	3.6111	0.0739	6.01	0.02	0.750			
0.7186	45987.31	3.6080	3.6077	0.0273	6.01	0.02	0.750			
0.7186	45988.09	3.6050	3.6072	-0.0193	6.01	0.02	0.750			
