Ah_balance (normalized)	Ah_balance (mAh)	Voltage - fit (V)	Voltage -  interpolate (V)	dQ/dV (1/V)	Temperature (°C)	Temperature - diff (°C)	Current (C)	R_DC 0ms (mOhm)	R_DC 50ms (mOhm)	R_DC 50 ms PEC (mOhm)
0.0958	6132.92	4.0040	4.0031	-0.0435	5.99	0.00	-0.750			
0.0960	6145.37	4.0010	4.0003	-0.0791	5.99	0.00	-0.750			
0.0963	6163.24	3.9980	3.9975	-0.1071	5.99	0.00	-0.750			
0.0967	6186.82	3.9950	3.9950	-0.1344	5.99	0.00	-0.750			
0.0971	6215.31	3.9920	3.9920	-0.1618	5.99	-0.00	-0.750			
0.0976	6249.34	3.9890	3.9892	-0.1875	5.99	-0.00	-0.750			
0.0983	6288.04	3.9860	3.9858	-0.2121	5.99	-0.00	-0.750			
0.0989	6332.35	3.9830	3.9830	-0.2361	5.99	-0.00	-0.750			
0.0997	6380.03	3.9800	3.9801	-0.2588	5.99	-0.00	-0.750			
0.1005	6431.82	3.9770	3.9770	-0.2826	5.98	-0.01	-0.750			
0.1014	6487.88	3.9740	3.9740	-0.3060	5.98	-0.01	-0.750			
0.1023	6548.79	3.9710	3.9709	-0.3284	5.98	-0.01	-0.750			
0.1033	6613.56	3.9680	3.9680	-0.3539	5.98	-0.01	-0.750			
0.1044	6683.65	3.9650	3.9651	-0.3810	5.98	-0.01	-0.750			
0.1056	6759.80	3.9620	3.9620	-0.4063	5.98	-0.01	-0.750			
0.1069	6840.44	3.9590	3.9589	-0.4308	5.97	-0.02	-0.750			
0.1082	6925.73	3.9560	3.9561	-0.4532	5.97	-0.02	-0.750			
0.1096	7015.54	3.9530	3.9531	-0.4751	5.97	-0.02	-0.750			
0.1111	7110.24	3.9500	3.9500	-0.4955	5.97	-0.02	-0.750			
0.1126	7206.36	3.9470	3.9470	-0.5148	5.97	-0.02	-0.750			
0.1142	7306.51	3.9440	3.9440	-0.5318	5.97	-0.02	-0.750			
0.1158	7411.61	3.9410	3.9410	-0.5544	5.97	-0.02	-0.750			
0.1175	7520.30	3.9380	3.9380	-0.5693	5.97	-0.02	-0.750			
0.1193	7632.66	3.9350	3.9349	-0.5845	5.97	-0.02	-0.750			
0.1210	7746.59	3.9320	3.9320	-0.5950	5.97	-0.02	-0.750			
0.1228	7862.17	3.9290	3.9289	-0.6086	5.97	-0.02	-0.750			
0.1247	7978.58	3.9260	3.9260	-0.6213	5.97	-0.02	-0.750			
0.1265	8096.40	3.9230	3.9231	-0.6396	5.98	-0.01	-0.750			
0.1285	8220.93	3.9200	3.9200	-0.6513	5.98	-0.01	-0.750			
0.1305	8352.15	3.9170	3.9169	-0.6642	5.98	-0.01	-0.750			
0.1325	8481.62	3.9140	3.9140	-0.6674	5.99	-0.00	-0.750			
0.1345	8610.91	3.9110	3.9112	-0.6753	5.99	0.00	-0.750			
0.1366	8739.50	3.9080	3.9080	-0.6776	5.99	0.00	-0.750			
0.1385	8866.40	3.9050	3.9050	-0.6812	5.99	0.00	-0.750			
0.1406	8998.94	3.9020	3.9020	-0.6865	6.00	0.01	-0.750			
0.1427	9134.78	3.8990	3.8990	-0.6955	6.00	0.01	-0.750			
0.1448	9268.08	3.8960	3.8960	-0.6976	6.00	0.01	-0.750			
0.1469	9402.44	3.8930	3.8934	-0.7053	6.00	0.01	-0.750			
0.1490	9536.81	3.8900	3.8900	-0.7100	6.01	0.02	-0.750			
0.1511	9671.78	3.8870	3.8869	-0.7174	6.01	0.02	-0.750			
0.1533	9812.12	3.8840	3.8840	-0.7207	6.02	0.03	-0.750			
0.1555	9952.86	3.8810	3.8810	-0.7303	6.02	0.03	-0.750			
0.1577	10093.40	3.8780	3.8780	-0.7293	6.03	0.04	-0.750			
0.1599	10233.96	3.8750	3.8750	-0.7306	6.03	0.04	-0.750			
0.1621	10374.50	3.8720	3.8719	-0.7262	6.04	0.05	-0.750			
0.1643	10512.20	3.8690	3.8691	-0.7267	6.05	0.06	-0.750			
0.1664	10650.42	3.8660	3.8660	-0.7295	6.05	0.06	-0.750			
0.1686	10792.24	3.8630	3.8630	-0.7372	6.06	0.07	-0.750			
0.1708	10934.11	3.8600	3.8598	-0.7295	6.07	0.08	-0.750			
0.1730	11074.10	3.8570	3.8570	-0.7332	6.07	0.08	-0.750			
0.1752	11214.87	3.8540	3.8542	-0.7373	6.08	0.09	-0.750			
0.1775	11357.06	3.8510	3.8508	-0.7449	6.08	0.09	-0.750			
0.1797	11498.57	3.8480	3.8480	-0.7425	6.09	0.10	-0.750			
0.1819	11643.30	3.8450	3.8450	-0.7463	6.09	0.10	-0.750			
0.1842	11789.12	3.8420	3.8422	-0.7466	6.10	0.11	-0.750			
0.1865	11933.41	3.8390	3.8389	-0.7481	6.11	0.12	-0.750			
0.1887	12073.61	3.8360	3.8362	-0.7456	6.11	0.12	-0.750			
0.1909	12216.76	3.8330	3.8330	-0.7461	6.12	0.13	-0.750			
0.1931	12359.58	3.8300	3.8298	-0.7498	6.13	0.14	-0.750			
0.1954	12504.64	3.8270	3.8270	-0.7501	6.14	0.15	-0.750			
0.1977	12649.64	3.8240	3.8240	-0.7532	6.14	0.15	-0.750			
0.1999	12793.26	3.8210	3.8210	-0.7547	6.15	0.16	-0.750			
0.2021	12937.57	3.8180	3.8180	-0.7505	6.16	0.17	-0.750			
0.2044	13080.96	3.8150	3.8149	-0.7503	6.16	0.17	-0.750			
0.2067	13226.71	3.8120	3.8120	-0.7533	6.17	0.18	-0.750			
0.2089	13371.23	3.8090	3.8091	-0.7522	6.18	0.19	-0.750			
0.2112	13515.63	3.8060	3.8060	-0.7530	6.19	0.20	-0.750			
0.2134	13660.14	3.8030	3.8030	-0.7525	6.20	0.21	-0.750			
0.2157	13805.52	3.8000	3.8000	-0.7550	6.21	0.22	-0.750			
0.2180	13950.38	3.7970	3.7969	-0.7545	6.22	0.23	-0.750			
0.2203	14096.06	3.7940	3.7940	-0.7567	6.22	0.23	-0.750			
0.2225	14241.72	3.7910	3.7910	-0.7577	6.23	0.24	-0.750			
0.2248	14386.69	3.7880	3.7880	-0.7589	6.24	0.25	-0.750			
0.2271	14531.66	3.7850	3.7850	-0.7612	6.24	0.25	-0.750			
0.2293	14676.31	3.7820	3.7821	-0.7570	6.25	0.26	-0.750			
0.2316	14824.63	3.7790	3.7789	-0.7676	6.25	0.26	-0.750			
0.2339	14971.68	3.7760	3.7761	-0.7666	6.26	0.27	-0.750			
0.2362	15118.98	3.7730	3.7730	-0.7656	6.27	0.28	-0.750			
0.2385	15265.66	3.7700	3.7700	-0.7683	6.28	0.29	-0.750			
0.2408	15413.42	3.7670	3.7671	-0.7689	6.29	0.30	-0.750			
0.2431	15559.74	3.7640	3.7640	-0.7728	6.30	0.31	-0.750			
0.2454	15708.68	3.7610	3.7609	-0.7801	6.30	0.31	-0.750			
0.2478	15858.35	3.7580	3.7580	-0.7805	6.31	0.32	-0.750			
0.2502	16009.87	3.7550	3.7550	-0.7865	6.32	0.33	-0.750			
0.2525	16161.51	3.7520	3.7520	-0.7884	6.33	0.34	-0.750			
0.2549	16313.89	3.7490	3.7491	-0.7869	6.34	0.35	-0.750			
0.2573	16464.71	3.7460	3.7460	-0.7907	6.34	0.35	-0.750			
0.2596	16614.43	3.7430	3.7432	-0.7929	6.35	0.36	-0.750			
0.2620	16767.06	3.7400	3.7401	-0.8010	6.36	0.37	-0.750			
0.2644	16922.03	3.7370	3.7369	-0.8069	6.37	0.38	-0.750			
0.2668	17077.69	3.7340	3.7339	-0.8107	6.37	0.38	-0.750			
0.2693	17234.50	3.7310	3.7311	-0.8182	6.38	0.39	-0.750			
0.2718	17392.21	3.7280	3.7281	-0.8247	6.39	0.40	-0.750			
0.2742	17550.69	3.7250	3.7250	-0.8274	6.39	0.40	-0.750			
0.2767	17710.78	3.7220	3.7219	-0.8353	6.40	0.41	-0.750			
0.2792	17871.15	3.7190	3.7190	-0.8383	6.40	0.41	-0.750			
0.2818	18033.45	3.7160	3.7160	-0.8466	6.41	0.42	-0.750			
0.2843	18196.10	3.7130	3.7132	-0.8494	6.41	0.42	-0.750			
0.2868	18357.66	3.7100	3.7099	-0.8595	6.42	0.43	-0.750			
0.2894	18524.57	3.7070	3.7070	-0.8652	6.43	0.44	-0.750			
0.2921	18691.83	3.7040	3.7040	-0.8724	6.44	0.45	-0.750			
0.2947	18861.94	3.7010	3.7008	-0.8818	6.44	0.45	-0.750			
0.2974	19031.04	3.6980	3.6983	-0.8875	6.45	0.46	-0.750			
0.3000	19201.03	3.6950	3.6950	-0.8931	6.46	0.47	-0.750			
0.3027	19373.10	3.6920	3.6920	-0.8988	6.47	0.48	-0.750			
0.3054	19544.50	3.6890	3.6889	-0.9031	6.48	0.49	-0.750			
0.3081	19721.42	3.6860	3.6860	-0.9176	6.49	0.50	-0.750			
0.3109	19897.17	3.6830	3.6829	-0.9282	6.49	0.50	-0.750			
0.3137	20076.92	3.6800	3.6800	-0.9353	6.50	0.51	-0.750			
0.3165	20256.41	3.6770	3.6770	-0.9405	6.50	0.51	-0.750			
0.3194	20439.73	3.6740	3.6739	-0.9424	6.51	0.52	-0.750			
0.3222	20620.72	3.6710	3.6712	-0.9551	6.51	0.52	-0.750			
0.3251	20804.90	3.6680	3.6680	-0.9657	6.52	0.53	-0.750			
0.3280	20991.73	3.6650	3.6649	-0.9741	6.53	0.54	-0.750			
0.3309	21179.49	3.6620	3.6619	-0.9773	6.54	0.55	-0.750			
0.3339	21367.49	3.6590	3.6593	-0.9963	6.55	0.56	-0.750			
0.3369	21559.07	3.6560	3.6559	-1.0119	6.55	0.56	-0.750			
0.3399	21756.41	3.6530	3.6527	-1.0226	6.56	0.57	-0.750			
0.3430	21951.12	3.6500	3.6500	-1.0286	6.56	0.57	-0.750			
0.3462	22154.36	3.6470	3.6469	-1.0483	6.57	0.58	-0.750			
0.3493	22355.31	3.6440	3.6440	-1.0565	6.57	0.58	-0.750			
0.3525	22560.01	3.6410	3.6410	-1.0596	6.58	0.59	-0.750			
0.3556	22759.06	3.6380	3.6380	-1.0691	6.58	0.59	-0.750			
0.3589	22967.06	3.6350	3.6352	-1.0815	6.59	0.60	-0.750			
0.3622	23177.89	3.6320	3.6319	-1.1004	6.59	0.60	-0.750			
0.3655	23390.62	3.6290	3.6291	-1.1037	6.60	0.61	-0.750			
0.3688	23604.90	3.6260	3.6259	-1.1115	6.61	0.62	-0.750			
0.3721	23815.82	3.6230	3.6232	-1.1246	6.61	0.62	-0.750			
0.3756	24035.71	3.6200	3.6200	-1.1287	6.62	0.63	-0.750			
0.3789	24251.23	3.6170	3.6169	-1.1281	6.62	0.63	-0.750			
0.3823	24469.64	3.6140	3.6138	-1.1369	6.63	0.64	-0.750			
0.3858	24689.41	3.6110	3.6110	-1.1583	6.63	0.64	-0.750			
0.3893	24913.96	3.6080	3.6078	-1.1628	6.64	0.65	-0.750			
0.3928	25138.22	3.6050	3.6049	-1.1657	6.64	0.65	-0.750			
0.3962	25358.59	3.6020	3.6024	-1.1709	6.65	0.66	-0.750			
0.3998	25589.30	3.5990	3.5989	-1.2000	6.65	0.66	-0.750			
0.4034	25819.92	3.5960	3.5959	-1.2111	6.66	0.67	-0.750			
0.4071	26053.13	3.5930	3.5923	-1.2188	6.66	0.67	-0.750			
0.4108	26290.83	3.5900	3.5903	-1.2465	6.66	0.67	-0.750	0.475	1.087	
0.4146	26531.83	3.5870	3.5868	-1.2526	6.66	0.67	-0.750			
0.4183	26772.00	3.5840	3.5840	-1.2649	6.67	0.68	-0.750			
0.4220	27009.87	3.5810	3.5812	-1.2722	6.67	0.68	-0.750			
0.4260	27262.69	3.5780	3.5779	-1.2967	6.67	0.68	-0.750			
0.4299	27515.52	3.5750	3.5749	-1.3097	6.67	0.68	-0.750			
0.4339	27770.04	3.5720	3.5724	-1.3271	6.67	0.68	-0.750			
0.4379	28026.72	3.5690	3.5688	-1.3385	6.68	0.69	-0.750			
0.4419	28284.62	3.5660	3.5660	-1.3477	6.68	0.69	-0.750			
0.4460	28541.77	3.5630	3.5632	-1.3509	6.69	0.70	-0.750			
0.4501	28805.43	3.5600	3.5599	-1.3813	6.69	0.70	-0.750			
0.4542	29070.20	3.5570	3.5570	-1.3879	6.69	0.70	-0.750			
0.4584	29337.65	3.5540	3.5542	-1.4042	6.69	0.70	-0.750			
0.4627	29610.77	3.5510	3.5509	-1.3993	6.70	0.71	-0.750			
0.4670	29888.35	3.5480	3.5478	-1.3950	6.70	0.71	-0.750			
0.4712	30157.41	3.5450	3.5454	-1.4103	6.71	0.72	-0.750			
0.4753	30422.24	3.5420	3.5419	-1.4247	6.71	0.72	-0.750			
0.4795	30689.04	3.5390	3.5389	-1.4560	6.71	0.72	-0.750			
0.4839	30972.43	3.5360	3.5368	-1.4876	6.71	0.72	-0.750			
0.4885	31265.96	3.5330	3.5326	-1.5187	6.72	0.73	-0.750			
0.4931	31559.99	3.5300	3.5299	-1.5494	6.72	0.73	-0.750			
0.4979	31863.06	3.5270	3.5271	-1.5526	6.73	0.74	-0.750			
0.5026	32169.12	3.5240	3.5240	-1.5686	6.73	0.74	-0.750			
0.5072	32460.49	3.5210	3.5212	-1.5337	6.73	0.74	-0.750			
0.5118	32755.44	3.5180	3.5178	-1.5304	6.73	0.74	-0.750			
0.5165	33054.94	3.5150	3.5148	-1.5561	6.74	0.75	-0.750			
0.5212	33355.01	3.5120	3.5121	-1.5592	6.75	0.76	-0.750			
0.5259	33654.57	3.5090	3.5090	-1.5648	6.75	0.76	-0.750			
0.5306	33960.10	3.5060	3.5057	-1.5589	6.75	0.76	-0.750			
0.5353	34258.65	3.5030	3.5030	-1.5646	6.75	0.76	-0.750			
0.5399	34554.99	3.5000	3.5003	-1.5624	6.76	0.77	-0.750			
0.5446	34854.20	3.4970	3.4967	-1.5536	6.77	0.78	-0.750			
0.5493	35154.39	3.4940	3.4937	-1.5381	6.77	0.78	-0.750			
0.5540	35454.80	3.4910	3.4908	-1.5504	6.78	0.79	-0.750			
0.5587	35753.77	3.4880	3.4882	-1.5539	6.79	0.80	-0.750			
0.5631	36041.42	3.4850	3.4848	-1.5525	6.80	0.81	-0.750			
0.5678	36341.17	3.4820	3.4824	-1.5518	6.80	0.81	-0.750			
0.5726	36645.33	3.4790	3.4790	-1.5380	6.81	0.82	-0.750			
0.5773	36944.99	3.4760	3.4758	-1.5288	6.82	0.83	-0.750			
0.5819	37242.89	3.4730	3.4730	-1.5186	6.83	0.84	-0.750			
0.5865	37536.47	3.4700	3.4698	-1.4894	6.83	0.84	-0.750			
0.5908	37812.81	3.4670	3.4669	-1.4992	6.84	0.85	-0.750			
0.5952	38095.72	3.4640	3.4637	-1.4764	6.85	0.86	-0.750			
0.5997	38383.40	3.4610	3.4606	-1.4788	6.86	0.87	-0.750			
0.6043	38674.07	3.4580	3.4590	-1.4814	6.87	0.88	-0.750			
0.6087	38959.64	3.4550	3.4549	-1.4788	6.89	0.90	-0.750			
0.6131	39240.13	3.4520	3.4519	-1.4476	6.90	0.91	-0.750			
0.6172	39500.59	3.4490	3.4491	-1.4620	6.90	0.91	-0.750			
0.6219	39804.26	3.4460	3.4462	-1.5093	6.91	0.92	-0.750			
0.6266	40099.93	3.4430	3.4426	-1.4989	6.93	0.94	-0.750			
0.6312	40394.51	3.4400	3.4401	-1.4850	6.95	0.96	-0.750			
0.6357	40682.32	3.4370	3.4373	-1.4365	6.96	0.97	-0.750			
0.6400	40961.90	3.4340	3.4338	-1.3988	6.98	0.99	-0.750			
0.6440	41216.52	3.4310	3.4309	-1.3462	6.99	1.00	-0.750			
0.6477	41453.51	3.4280	3.4282	-1.2739	7.00	1.01	-0.750			
0.6516	41701.94	3.4250	3.4249	-1.2573	7.02	1.03	-0.750			
0.6553	41941.61	3.4220	3.4219	-1.2289	7.03	1.04	-0.750			
0.6589	42171.18	3.4190	3.4191	-1.1966	7.05	1.06	-0.750			
0.6626	42403.39	3.4160	3.4160	-1.1778	7.06	1.07	-0.750			
0.6660	42625.30	3.4130	3.4129	-1.1464	7.07	1.08	-0.750			
0.6694	42842.56	3.4100	3.4100	-1.1189	7.08	1.09	-0.750			
0.6727	43053.24	3.4070	3.4071	-1.0930	7.09	1.10	-0.750			
0.6760	43262.67	3.4040	3.4039	-1.0646	7.11	1.12	-0.750			
0.6791	43464.86	3.4010	3.4010	-1.0352	7.13	1.14	-0.750			
0.6822	43657.76	3.3980	3.3980	-1.0096	7.14	1.15	-0.750			
0.6852	43850.80	3.3950	3.3952	-0.9899	7.15	1.16	-0.750			
0.6881	44037.71	3.3920	3.3918	-0.9643	7.17	1.18	-0.750			
0.6910	44222.11	3.3890	3.3890	-0.9396	7.18	1.19	-0.750			
0.6938	44400.94	3.3860	3.3860	-0.9138	7.20	1.21	-0.750			
0.6965	44575.29	3.3830	3.3833	-0.8871	7.21	1.22	-0.750			
0.6991	44742.70	3.3800	3.3799	-0.8580	7.22	1.23	-0.750			
0.7016	44902.29	3.3770	3.3770	-0.8383	7.23	1.24	-0.750			
0.7041	45060.30	3.3740	3.3739	-0.8153	7.23	1.24	-0.750			
0.7065	45217.05	3.3710	3.3708	-0.8013	7.24	1.25	-0.750			
0.7089	45368.59	3.3680	3.3683	-0.7801	7.25	1.26	-0.750			
0.7112	45517.67	3.3650	3.3649	-0.7623	7.26	1.27	-0.750			
0.7134	45660.51	3.3620	3.3620	-0.7446	7.28	1.29	-0.750			
0.7156	45800.74	3.3590	3.3590	-0.7223	7.29	1.30	-0.750			
0.7178	45937.63	3.3560	3.3559	-0.7039	7.31	1.32	-0.750			
0.7199	46070.63	3.3530	3.3528	-0.6824	7.32	1.33	-0.750			
0.7219	46200.20	3.3500	3.3503	-0.6564	7.33	1.34	-0.750			
0.7238	46323.85	3.3470	3.3469	-0.6330	7.34	1.35	-0.750			
