Ah_balance (normalized)	Ah_balance (mAh)	Voltage - fit (V)	Voltage -  interpolate (V)	dQ/dV (1/V)	Temperature (°C)	Temperature - diff (°C)	Current (C)	R_DC 0ms (mOhm)	R_DC 50ms (mOhm)	R_DC 50 ms PEC (mOhm)
0.0926	5923.87	4.0040	4.0028	-0.0381	5.99	0.00	-0.750			
0.0927	5935.03	4.0010	4.0002	-0.0732	5.99	0.00	-0.750			
0.0930	5952.87	3.9980	3.9976	-0.1037	5.99	0.00	-0.750			
0.0934	5975.47	3.9950	3.9949	-0.1317	5.99	0.00	-0.750			
0.0938	6003.68	3.9920	3.9921	-0.1582	5.99	0.00	-0.750			
0.0943	6036.85	3.9890	3.9891	-0.1837	5.99	-0.00	-0.750			
0.0949	6074.88	3.9860	3.9860	-0.2079	5.99	-0.00	-0.750			
0.0956	6118.27	3.9830	3.9830	-0.2336	5.99	-0.00	-0.750			
0.0963	6165.26	3.9800	3.9800	-0.2573	5.99	-0.00	-0.750			
0.0971	6216.82	3.9770	3.9771	-0.2815	5.99	-0.00	-0.750			
0.0980	6273.46	3.9740	3.9739	-0.3047	5.99	-0.00	-0.750			
0.0990	6334.28	3.9710	3.9710	-0.3282	5.99	-0.00	-0.750			
0.1000	6399.36	3.9680	3.9681	-0.3520	5.99	-0.00	-0.750			
0.1011	6469.18	3.9650	3.9650	-0.3763	5.98	-0.01	-0.750			
0.1022	6543.95	3.9620	3.9620	-0.3999	5.98	-0.01	-0.750			
0.1035	6623.04	3.9590	3.9590	-0.4215	5.98	-0.01	-0.750			
0.1048	6706.50	3.9560	3.9560	-0.4434	5.98	-0.01	-0.750			
0.1062	6794.52	3.9530	3.9530	-0.4651	5.98	-0.01	-0.750			
0.1076	6885.60	3.9500	3.9500	-0.4837	5.98	-0.01	-0.750			
0.1091	6980.13	3.9470	3.9471	-0.5031	5.98	-0.01	-0.750			
0.1106	7078.99	3.9440	3.9440	-0.5202	5.98	-0.01	-0.750			
0.1122	7180.58	3.9410	3.9410	-0.5375	5.98	-0.01	-0.750			
0.1138	7286.23	3.9380	3.9380	-0.5568	5.97	-0.02	-0.750			
0.1155	7395.06	3.9350	3.9350	-0.5685	5.97	-0.02	-0.750			
0.1173	7506.10	3.9320	3.9320	-0.5838	5.97	-0.02	-0.750			
0.1191	7619.46	3.9290	3.9292	-0.5979	5.97	-0.02	-0.750			
0.1209	7735.17	3.9260	3.9258	-0.6101	5.97	-0.02	-0.750			
0.1227	7854.14	3.9230	3.9230	-0.6218	5.97	-0.02	-0.750			
0.1246	7974.03	3.9200	3.9201	-0.6327	5.97	-0.02	-0.750			
0.1265	8098.48	3.9170	3.9170	-0.6434	5.97	-0.02	-0.750			
0.1285	8223.30	3.9140	3.9139	-0.6495	5.97	-0.02	-0.750			
0.1304	8347.30	3.9110	3.9110	-0.6552	5.97	-0.02	-0.750			
0.1324	8473.60	3.9080	3.9079	-0.6632	5.97	-0.02	-0.750			
0.1344	8602.41	3.9050	3.9050	-0.6695	5.97	-0.02	-0.750			
0.1364	8731.71	3.9020	3.9020	-0.6755	5.98	-0.01	-0.750			
0.1385	8861.95	3.8990	3.8990	-0.6782	5.98	-0.01	-0.750			
0.1405	8993.53	3.8960	3.8961	-0.6817	5.98	-0.01	-0.750			
0.1426	9123.48	3.8930	3.8929	-0.6865	5.99	-0.00	-0.750			
0.1446	9255.22	3.8900	3.8899	-0.6896	5.99	0.00	-0.750			
0.1467	9387.62	3.8870	3.8871	-0.6947	5.99	0.00	-0.750			
0.1488	9521.40	3.8840	3.8841	-0.7038	6.00	0.01	-0.750			
0.1509	9659.18	3.8810	3.8810	-0.7062	6.00	0.01	-0.750			
0.1531	9796.03	3.8780	3.8779	-0.7094	6.00	0.01	-0.750			
0.1552	9931.93	3.8750	3.8750	-0.7095	6.01	0.02	-0.750			
0.1573	10067.69	3.8720	3.8720	-0.7068	6.01	0.02	-0.750			
0.1594	10203.43	3.8690	3.8690	-0.7091	6.02	0.03	-0.750			
0.1615	10338.18	3.8660	3.8660	-0.7122	6.02	0.03	-0.750			
0.1637	10475.34	3.8630	3.8630	-0.7104	6.03	0.04	-0.750			
0.1658	10613.39	3.8600	3.8600	-0.7136	6.03	0.04	-0.750			
0.1680	10750.17	3.8570	3.8570	-0.7145	6.04	0.05	-0.750			
0.1701	10887.95	3.8540	3.8540	-0.7142	6.04	0.05	-0.750			
0.1723	11024.69	3.8510	3.8509	-0.7159	6.05	0.06	-0.750			
0.1744	11161.29	3.8480	3.8480	-0.7170	6.05	0.06	-0.750			
0.1765	11298.15	3.8450	3.8450	-0.7194	6.06	0.07	-0.750			
0.1787	11438.76	3.8420	3.8420	-0.7209	6.06	0.07	-0.750			
0.1809	11577.17	3.8390	3.8390	-0.7218	6.07	0.08	-0.750			
0.1831	11715.97	3.8360	3.8360	-0.7213	6.07	0.08	-0.750			
0.1852	11855.51	3.8330	3.8329	-0.7198	6.08	0.09	-0.750			
0.1874	11993.07	3.8300	3.8300	-0.7213	6.08	0.09	-0.750			
0.1895	12130.07	3.8270	3.8271	-0.7230	6.08	0.09	-0.750			
0.1917	12268.97	3.8240	3.8239	-0.7266	6.09	0.10	-0.750			
0.1939	12409.47	3.8210	3.8213	-0.7303	6.09	0.10	-0.750			
0.1961	12549.16	3.8180	3.8179	-0.7310	6.10	0.11	-0.750			
0.1983	12690.50	3.8150	3.8151	-0.7335	6.10	0.11	-0.750			
0.2005	12832.02	3.8120	3.8119	-0.7345	6.11	0.12	-0.750			
0.2027	12974.29	3.8090	3.8090	-0.7366	6.12	0.13	-0.750			
0.2049	13114.71	3.8060	3.8060	-0.7333	6.13	0.14	-0.750			
0.2071	13254.28	3.8030	3.8030	-0.7345	6.13	0.14	-0.750			
0.2093	13395.55	3.8000	3.8000	-0.7372	6.14	0.15	-0.750			
0.2115	13536.50	3.7970	3.7970	-0.7392	6.14	0.15	-0.750			
0.2137	13678.12	3.7940	3.7939	-0.7435	6.15	0.16	-0.750			
0.2160	13822.94	3.7910	3.7910	-0.7440	6.15	0.16	-0.750			
0.2182	13966.48	3.7880	3.7880	-0.7463	6.16	0.17	-0.750			
0.2205	14109.33	3.7850	3.7850	-0.7459	6.17	0.18	-0.750			
0.2227	14251.80	3.7820	3.7820	-0.7437	6.17	0.18	-0.750			
0.2249	14394.70	3.7790	3.7790	-0.7472	6.18	0.19	-0.750			
0.2271	14537.36	3.7760	3.7760	-0.7507	6.19	0.20	-0.750			
0.2294	14681.50	3.7730	3.7730	-0.7555	6.19	0.20	-0.750			
0.2317	14828.51	3.7700	3.7700	-0.7619	6.20	0.21	-0.750			
0.2340	14974.85	3.7670	3.7670	-0.7639	6.21	0.22	-0.750			
0.2363	15122.04	3.7640	3.7641	-0.7687	6.21	0.22	-0.750			
0.2386	15270.73	3.7610	3.7610	-0.7697	6.22	0.23	-0.750			
0.2409	15418.25	3.7580	3.7580	-0.7751	6.22	0.23	-0.750			
0.2432	15567.31	3.7550	3.7550	-0.7754	6.23	0.24	-0.750			
0.2456	15716.15	3.7520	3.7520	-0.7778	6.23	0.24	-0.750			
0.2479	15865.39	3.7490	3.7490	-0.7833	6.24	0.25	-0.750			
0.2502	16015.92	3.7460	3.7461	-0.7862	6.24	0.25	-0.750			
0.2526	16166.52	3.7430	3.7429	-0.7922	6.24	0.25	-0.750			
0.2550	16320.61	3.7400	3.7399	-0.7978	6.25	0.26	-0.750			
0.2574	16473.37	3.7370	3.7371	-0.8005	6.25	0.26	-0.750			
0.2598	16628.01	3.7340	3.7340	-0.8107	6.26	0.27	-0.750			
0.2623	16784.41	3.7310	3.7310	-0.8139	6.27	0.28	-0.750			
0.2647	16940.52	3.7280	3.7279	-0.8160	6.28	0.29	-0.750			
0.2672	17098.13	3.7250	3.7250	-0.8210	6.28	0.29	-0.750			
0.2696	17255.84	3.7220	3.7221	-0.8246	6.29	0.30	-0.750			
0.2721	17413.67	3.7190	3.7190	-0.8374	6.30	0.31	-0.750			
0.2746	17576.30	3.7160	3.7159	-0.8394	6.30	0.31	-0.750			
0.2772	17737.83	3.7130	3.7130	-0.8416	6.30	0.31	-0.750			
0.2797	17900.32	3.7100	3.7100	-0.8524	6.31	0.32	-0.750			
0.2823	18065.08	3.7070	3.7071	-0.8604	6.31	0.32	-0.750			
0.2848	18230.28	3.7040	3.7039	-0.8703	6.32	0.33	-0.750			
0.2875	18397.31	3.7010	3.7009	-0.8747	6.32	0.33	-0.750			
0.2901	18566.33	3.6980	3.6980	-0.8808	6.32	0.33	-0.750			
0.2928	18739.44	3.6950	3.6949	-0.8902	6.33	0.34	-0.750			
0.2955	18910.40	3.6920	3.6920	-0.8974	6.33	0.34	-0.750			
0.2982	19082.24	3.6890	3.6890	-0.8984	6.34	0.35	-0.750			
0.3008	19253.04	3.6860	3.6860	-0.9033	6.34	0.35	-0.750			
0.3035	19425.56	3.6830	3.6830	-0.9091	6.35	0.36	-0.750			
0.3063	19603.19	3.6800	3.6801	-0.9239	6.35	0.36	-0.750			
0.3091	19781.08	3.6770	3.6770	-0.9368	6.36	0.37	-0.750			
0.3119	19964.16	3.6740	3.6740	-0.9488	6.36	0.37	-0.750			
0.3148	20146.28	3.6710	3.6710	-0.9564	6.37	0.38	-0.750			
0.3177	20333.03	3.6680	3.6679	-0.9636	6.38	0.39	-0.750			
0.3206	20518.01	3.6650	3.6650	-0.9678	6.38	0.39	-0.750			
0.3235	20704.30	3.6620	3.6620	-0.9727	6.39	0.40	-0.750			
0.3264	20890.78	3.6590	3.6589	-0.9762	6.39	0.40	-0.750			
0.3293	21077.41	3.6560	3.6560	-0.9779	6.40	0.41	-0.750			
0.3323	21266.39	3.6530	3.6530	-0.9926	6.40	0.41	-0.750			
0.3353	21456.94	3.6500	3.6500	-0.9983	6.40	0.41	-0.750			
0.3383	21650.80	3.6470	3.6469	-1.0022	6.41	0.42	-0.750			
0.3413	21842.85	3.6440	3.6440	-1.0068	6.41	0.42	-0.750			
0.3443	22036.77	3.6410	3.6412	-1.0240	6.41	0.42	-0.750			
0.3474	22232.97	3.6380	3.6379	-1.0317	6.42	0.43	-0.750			
0.3505	22431.46	3.6350	3.6349	-1.0467	6.42	0.43	-0.750			
0.3536	22632.93	3.6320	3.6320	-1.0577	6.43	0.44	-0.750			
0.3569	22838.57	3.6290	3.6291	-1.0736	6.43	0.44	-0.750			
0.3601	23049.04	3.6260	3.6260	-1.0780	6.43	0.44	-0.750			
0.3634	23257.42	3.6230	3.6230	-1.0812	6.44	0.45	-0.750			
0.3666	23463.92	3.6200	3.6200	-1.0820	6.44	0.45	-0.750			
0.3699	23671.89	3.6170	3.6171	-1.0853	6.44	0.45	-0.750			
0.3731	23878.30	3.6140	3.6139	-1.0924	6.45	0.46	-0.750			
0.3764	24087.49	3.6110	3.6110	-1.1014	6.46	0.47	-0.750			
0.3797	24299.11	3.6080	3.6080	-1.1074	6.47	0.48	-0.750			
0.3831	24515.23	3.6050	3.6050	-1.1234	6.47	0.48	-0.750			
0.3864	24732.17	3.6020	3.6020	-1.1331	6.47	0.48	-0.750			
0.3899	24951.05	3.5990	3.5989	-1.1405	6.47	0.48	-0.750			
0.3933	25170.99	3.5960	3.5960	-1.1456	6.47	0.48	-0.750			
0.3967	25391.23	3.5930	3.5930	-1.1602	6.47	0.48	-0.750			
0.4003	25616.40	3.5900	3.5899	-1.1691	6.48	0.49	-0.750			
0.4038	25841.44	3.5870	3.5869	-1.1798	6.49	0.50	-0.750			
0.4073	26068.55	3.5840	3.5848	-1.1882	6.49	0.50	-0.750	0.460	1.033	
0.4109	26298.40	3.5810	3.5809	-1.1993	6.49	0.50	-0.750			
0.4145	26529.84	3.5780	3.5779	-1.2089	6.50	0.51	-0.750			
0.4181	26760.68	3.5750	3.5751	-1.2198	6.50	0.51	-0.750			
0.4218	26996.34	3.5720	3.5720	-1.2349	6.50	0.51	-0.750			
0.4256	27235.29	3.5690	3.5690	-1.2483	6.51	0.52	-0.750			
0.4293	27473.97	3.5660	3.5660	-1.2626	6.51	0.52	-0.750			
0.4331	27718.62	3.5630	3.5630	-1.2733	6.51	0.52	-0.750			
0.4370	27966.11	3.5600	3.5600	-1.2851	6.52	0.53	-0.750			
0.4408	28214.16	3.5570	3.5570	-1.2961	6.53	0.54	-0.750			
0.4447	28462.86	3.5540	3.5541	-1.3104	6.53	0.54	-0.750			
0.4487	28716.47	3.5510	3.5510	-1.3238	6.54	0.55	-0.750			
0.4527	28971.81	3.5480	3.5479	-1.3348	6.54	0.55	-0.750			
0.4567	29229.12	3.5450	3.5451	-1.3494	6.55	0.56	-0.750			
0.4608	29491.89	3.5420	3.5420	-1.3625	6.55	0.56	-0.750			
0.4649	29754.37	3.5390	3.5390	-1.3651	6.56	0.57	-0.750			
0.4690	30017.49	3.5360	3.5361	-1.3788	6.56	0.57	-0.750			
0.4732	30282.22	3.5330	3.5330	-1.4001	6.57	0.58	-0.750			
0.4774	30554.01	3.5300	3.5299	-1.4075	6.58	0.59	-0.750			
0.4817	30826.13	3.5270	3.5272	-1.4207	6.59	0.60	-0.750			
0.4859	31099.96	3.5240	3.5242	-1.4354	6.59	0.60	-0.750			
0.4903	31377.67	3.5210	3.5209	-1.4411	6.60	0.61	-0.750			
0.4946	31655.71	3.5180	3.5181	-1.4461	6.60	0.61	-0.750			
0.4989	31931.00	3.5150	3.5149	-1.4659	6.61	0.62	-0.750			
0.5033	32210.67	3.5120	3.5121	-1.4710	6.62	0.63	-0.750			
0.5078	32501.14	3.5090	3.5090	-1.4754	6.63	0.64	-0.750			
0.5123	32786.46	3.5060	3.5059	-1.4790	6.64	0.65	-0.750			
0.5167	33069.17	3.5030	3.5029	-1.4813	6.65	0.66	-0.750			
0.5211	33353.59	3.5000	3.4999	-1.4750	6.65	0.66	-0.750			
0.5256	33637.04	3.4970	3.4969	-1.4781	6.66	0.67	-0.750			
0.5299	33915.18	3.4940	3.4940	-1.4747	6.67	0.68	-0.750			
0.5344	34201.40	3.4910	3.4909	-1.4841	6.67	0.68	-0.750			
0.5389	34490.27	3.4880	3.4879	-1.4919	6.68	0.69	-0.750			
0.5434	34774.89	3.4850	3.4851	-1.4946	6.69	0.70	-0.750			
0.5479	35062.53	3.4820	3.4820	-1.4906	6.70	0.71	-0.750			
0.5524	35354.97	3.4790	3.4788	-1.4980	6.70	0.71	-0.750			
0.5569	35641.27	3.4760	3.4761	-1.4930	6.71	0.72	-0.750			
0.5613	35926.29	3.4730	3.4730	-1.4853	6.73	0.74	-0.750			
0.5658	36214.12	3.4700	3.4699	-1.4834	6.74	0.75	-0.750			
0.5703	36498.08	3.4670	3.4670	-1.4842	6.75	0.76	-0.750			
0.5747	36782.55	3.4640	3.4640	-1.4740	6.77	0.78	-0.750			
0.5791	37065.29	3.4610	3.4609	-1.4634	6.78	0.79	-0.750			
0.5835	37346.57	3.4580	3.4579	-1.4430	6.80	0.81	-0.750			
0.5879	37623.37	3.4550	3.4551	-1.4281	6.81	0.82	-0.750			
0.5921	37893.88	3.4520	3.4520	-1.4115	6.82	0.83	-0.750			
0.5963	38161.10	3.4490	3.4489	-1.3922	6.83	0.84	-0.750			
0.6005	38429.93	3.4460	3.4460	-1.3848	6.84	0.85	-0.750			
0.6046	38694.16	3.4430	3.4429	-1.3737	6.85	0.86	-0.750			
0.6087	38957.62	3.4400	3.4400	-1.3536	6.86	0.87	-0.750			
0.6128	39217.49	3.4370	3.4370	-1.3401	6.88	0.89	-0.750			
0.6167	39470.75	3.4340	3.4340	-1.3259	6.90	0.91	-0.750			
0.6207	39723.43	3.4310	3.4310	-1.3028	6.92	0.93	-0.750			
0.6246	39973.69	3.4280	3.4279	-1.2832	6.93	0.94	-0.750			
0.6284	40218.90	3.4250	3.4250	-1.2619	6.94	0.95	-0.750			
0.6322	40459.46	3.4220	3.4221	-1.2407	6.95	0.96	-0.750			
0.6359	40697.31	3.4190	3.4189	-1.2156	6.96	0.97	-0.750			
0.6395	40928.00	3.4160	3.4160	-1.1833	6.98	0.99	-0.750			
0.6430	41151.16	3.4130	3.4130	-1.1603	6.99	1.00	-0.750			
0.6465	41373.37	3.4100	3.4100	-1.1381	7.00	1.01	-0.750			
0.6498	41589.22	3.4070	3.4069	-1.1056	7.02	1.03	-0.750			
0.6531	41797.85	3.4040	3.4040	-1.0763	7.03	1.04	-0.750			
0.6562	41999.98	3.4010	3.4012	-1.0538	7.05	1.06	-0.750			
0.6594	42201.45	3.3980	3.3979	-1.0334	7.06	1.07	-0.750			
0.6625	42397.29	3.3950	3.3949	-1.0068	7.07	1.08	-0.750			
0.6654	42586.22	3.3920	3.3920	-0.9769	7.08	1.09	-0.750			
0.6684	42774.59	3.3890	3.3891	-0.9613	7.09	1.10	-0.750			
0.6712	42955.98	3.3860	3.3860	-0.9386	7.10	1.11	-0.750			
0.6740	43132.95	3.3830	3.3829	-0.9123	7.11	1.12	-0.750			
0.6767	43305.84	3.3800	3.3800	-0.8871	7.13	1.14	-0.750			
0.6793	43473.88	3.3770	3.3770	-0.8637	7.14	1.15	-0.750			
0.6819	43639.79	3.3740	3.3741	-0.8412	7.15	1.16	-0.750			
0.6844	43798.81	3.3710	3.3710	-0.8139	7.16	1.17	-0.750			
0.6867	43951.06	3.3680	3.3680	-0.7921	7.18	1.19	-0.750			
0.6891	44100.13	3.3650	3.3650	-0.7718	7.19	1.20	-0.750			
0.6913	44245.74	3.3620	3.3619	-0.7528	7.20	1.21	-0.750			
0.6936	44388.54	3.3590	3.3590	-0.7358	7.21	1.22	-0.750			
0.6958	44528.81	3.3560	3.3560	-0.7172	7.22	1.23	-0.750			
0.6979	44665.28	3.3530	3.3530	-0.6975	7.24	1.25	-0.750			
0.6999	44796.66	3.3500	3.3500	-0.6830	7.25	1.26	-0.750			
0.7020	44925.03	3.3470	3.3469	-0.6671	7.26	1.27	-0.750			
0.7039	45052.69	3.3440	3.3439	-0.6505	7.27	1.28	-0.750			
0.7059	45176.02	3.3410	3.3411	-0.6373	7.29	1.30	-0.750			
0.7078	45297.73	3.3380	3.3380	-0.6223	7.30	1.31	-0.750			
0.7096	45416.59	3.3350	3.3350	-0.6046	7.31	1.32	-0.750			
0.7114	45530.03	3.3320	3.3319	-0.5903	7.32	1.33	-0.750			
0.7131	45640.24	3.3290	3.3291	-0.5763	7.33	1.34	-0.750			
0.7148	45749.82	3.3260	3.3260	-0.5661	7.34	1.35	-0.750			
0.7165	45857.62	3.3230	3.3230	-0.5565	7.36	1.37	-0.750			
