Ah_balance (normalized)	Ah_balance (mAh)	Voltage - fit (V)	Voltage -  interpolate (V)	dQ/dV (1/V)	Temperature (°C)	Temperature - diff (°C)	Current (C)	R_DC 0ms (mOhm)	R_DC 50ms (mOhm)	R_DC 50 ms PEC (mOhm)
0.1774	11351.52	4.0830	4.0830	0.7823	7.60	1.61	0.750			
0.1797	11503.02	4.0800	4.0799	0.7824	7.59	1.60	0.750			
0.1820	11647.09	4.0770	4.0770	0.7690	7.59	1.60	0.750			
0.1843	11795.27	4.0740	4.0741	0.7732	7.58	1.59	0.750			
0.1866	11943.49	4.0710	4.0708	0.7751	7.57	1.58	0.750			
0.1890	12093.44	4.0680	4.0680	0.7778	7.56	1.57	0.750			
0.1913	12242.31	4.0650	4.0652	0.7798	7.56	1.57	0.750			
0.1936	12393.53	4.0620	4.0619	0.7830	7.55	1.56	0.750			
0.1960	12546.21	4.0590	4.0589	0.7860	7.54	1.55	0.750			
0.1983	12693.62	4.0560	4.0560	0.7825	7.53	1.54	0.750			
0.2007	12844.73	4.0530	4.0531	0.7878	7.53	1.54	0.750			
0.2031	12997.31	4.0500	4.0499	0.7914	7.52	1.53	0.750			
0.2055	13149.74	4.0470	4.0470	0.7934	7.51	1.52	0.750			
0.2078	13301.84	4.0440	4.0440	0.7951	7.50	1.51	0.750			
0.2102	13454.92	4.0410	4.0410	0.7982	7.50	1.51	0.750			
0.2126	13607.78	4.0380	4.0380	0.8055	7.49	1.50	0.750			
0.2150	13762.66	4.0350	4.0350	0.8102	7.48	1.49	0.750			
0.2175	13919.44	4.0320	4.0319	0.8088	7.47	1.48	0.750			
0.2199	14074.40	4.0290	4.0290	0.8145	7.47	1.48	0.750			
0.2224	14231.70	4.0260	4.0261	0.8182	7.46	1.47	0.750			
0.2248	14388.82	4.0230	4.0228	0.8222	7.45	1.46	0.750			
0.2273	14546.83	4.0200	4.0200	0.8247	7.44	1.45	0.750			
0.2298	14704.92	4.0170	4.0170	0.8273	7.43	1.44	0.750			
0.2323	14865.07	4.0140	4.0140	0.8353	7.43	1.44	0.750			
0.2348	15025.58	4.0110	4.0110	0.8380	7.42	1.43	0.750			
0.2373	15186.95	4.0080	4.0079	0.8385	7.41	1.42	0.750			
0.2398	15349.12	4.0050	4.0050	0.8406	7.40	1.41	0.750			
0.2423	15509.98	4.0020	4.0021	0.8393	7.39	1.40	0.750			
0.2449	15670.45	3.9990	3.9990	0.8444	7.39	1.40	0.750			
0.2474	15831.94	3.9960	3.9960	0.8461	7.38	1.39	0.750			
0.2499	15994.35	3.9930	3.9928	0.8521	7.37	1.38	0.750			
0.2525	16159.28	3.9900	3.9901	0.8543	7.36	1.37	0.750			
0.2551	16324.21	3.9870	3.9871	0.8622	7.35	1.36	0.750			
0.2577	16491.84	3.9840	3.9840	0.8669	7.34	1.35	0.750			
0.2603	16657.30	3.9810	3.9810	0.8675	7.34	1.35	0.750			
0.2629	16822.71	3.9780	3.9780	0.8721	7.33	1.34	0.750			
0.2655	16993.66	3.9750	3.9750	0.8724	7.32	1.33	0.750			
0.2681	17160.47	3.9720	3.9720	0.8801	7.31	1.32	0.750			
0.2708	17330.06	3.9690	3.9691	0.8863	7.30	1.31	0.750			
0.2734	17499.26	3.9660	3.9661	0.8892	7.29	1.30	0.750			
0.2761	17671.13	3.9630	3.9630	0.8980	7.28	1.29	0.750			
0.2788	17843.73	3.9600	3.9600	0.9005	7.27	1.28	0.750			
0.2815	18017.89	3.9570	3.9570	0.9090	7.26	1.27	0.750			
0.2843	18196.00	3.9540	3.9540	0.9191	7.25	1.26	0.750			
0.2870	18369.69	3.9510	3.9509	0.9174	7.24	1.25	0.750			
0.2898	18548.02	3.9480	3.9481	0.9194	7.23	1.24	0.750			
0.2926	18724.22	3.9450	3.9450	0.9256	7.22	1.23	0.750			
0.2953	18902.16	3.9420	3.9420	0.9299	7.21	1.22	0.750			
0.2981	19079.97	3.9390	3.9391	0.9337	7.20	1.21	0.750			
0.3009	19260.33	3.9360	3.9360	0.9388	7.19	1.20	0.750			
0.3038	19442.03	3.9330	3.9330	0.9488	7.18	1.19	0.750			
0.3066	19624.95	3.9300	3.9300	0.9551	7.17	1.18	0.750			
0.3095	19809.52	3.9270	3.9270	0.9651	7.16	1.17	0.750			
0.3124	19994.03	3.9240	3.9239	0.9687	7.15	1.16	0.750			
0.3153	20181.54	3.9210	3.9210	0.9743	7.14	1.15	0.750			
0.3183	20368.23	3.9180	3.9180	0.9807	7.13	1.14	0.750			
0.3212	20557.26	3.9150	3.9150	0.9905	7.12	1.13	0.750			
0.3242	20747.73	3.9120	3.9119	1.0005	7.11	1.12	0.750			
0.3272	20942.73	3.9090	3.9089	1.0041	7.10	1.11	0.750			
0.3302	21135.25	3.9060	3.9060	1.0178	7.09	1.10	0.750			
0.3333	21331.63	3.9030	3.9032	1.0311	7.08	1.09	0.750			
0.3364	21529.63	3.9000	3.8999	1.0401	7.07	1.08	0.750			
0.3396	21731.90	3.8970	3.8971	1.0508	7.06	1.07	0.750			
0.3427	21934.26	3.8940	3.8940	1.0609	7.04	1.05	0.750			
0.3459	22139.28	3.8910	3.8911	1.0718	7.03	1.04	0.750			
0.3492	22348.60	3.8880	3.8879	1.0865	7.01	1.02	0.750			
0.3524	22555.24	3.8850	3.8851	1.0947	7.00	1.01	0.750			
0.3557	22765.96	3.8820	3.8820	1.1088	7.00	1.01	0.750			
0.3591	22980.87	3.8790	3.8790	1.1211	6.99	1.00	0.750			
0.3625	23198.11	3.8760	3.8759	1.1287	6.98	0.99	0.750			
0.3659	23416.13	3.8730	3.8730	1.1441	6.97	0.98	0.750			
0.3693	23637.44	3.8700	3.8700	1.1596	6.95	0.96	0.750			
0.3728	23860.18	3.8670	3.8670	1.1753	6.94	0.95	0.750			
0.3764	24087.13	3.8640	3.8640	1.1861	6.92	0.93	0.750			
0.3799	24315.91	3.8610	3.8611	1.2055	6.91	0.92	0.750			
0.3836	24549.77	3.8580	3.8580	1.2266	6.90	0.91	0.750			
0.3873	24787.42	3.8550	3.8549	1.2441	6.89	0.90	0.750			
0.3910	25025.33	3.8520	3.8520	1.2621	6.88	0.89	0.750			
0.3948	25267.58	3.8490	3.8490	1.2959	6.87	0.88	0.750			
0.3988	25521.70	3.8460	3.8459	1.3131	6.85	0.86	0.750			
0.4028	25776.10	3.8430	3.8430	1.3466	6.84	0.85	0.750			
0.4068	26037.30	3.8400	3.8400	1.3732	6.83	0.84	0.750	0.420	0.902	
0.4110	26306.13	3.8370	3.8369	1.3982	6.81	0.82	0.750			
0.4152	26574.75	3.8340	3.8341	1.4226	6.80	0.81	0.750			
0.4195	26851.11	3.8310	3.8310	1.4506	6.79	0.80	0.750			
0.4240	27132.80	3.8280	3.8278	1.4649	6.77	0.78	0.750			
0.4284	27416.49	3.8250	3.8251	1.4894	6.76	0.77	0.750			
0.4329	27703.55	3.8220	3.8221	1.5262	6.74	0.75	0.750			
0.4375	27999.89	3.8190	3.8188	1.5523	6.73	0.74	0.750			
0.4422	28299.67	3.8160	3.8162	1.5638	6.71	0.72	0.750			
0.4469	28603.87	3.8130	3.8132	1.6031	6.68	0.69	0.750			
0.4519	28919.29	3.8100	3.8099	1.6228	6.66	0.67	0.750			
0.4567	29227.54	3.8070	3.8069	1.6515	6.64	0.65	0.750			
0.4617	29551.24	3.8040	3.8040	1.6760	6.61	0.62	0.750			
0.4668	29878.09	3.8010	3.8010	1.7221	6.60	0.61	0.750			
0.4720	30210.47	3.7980	3.7982	1.7391	6.58	0.59	0.750			
0.4772	30542.49	3.7950	3.7950	1.7706	6.56	0.57	0.750			
0.4826	30886.31	3.7920	3.7920	1.7901	6.53	0.54	0.750			
0.4880	31231.25	3.7890	3.7892	1.8137	6.51	0.52	0.750			
0.4935	31586.21	3.7860	3.7862	1.8465	6.48	0.49	0.750			
0.4992	31947.67	3.7830	3.7830	1.8783	6.46	0.47	0.750			
0.5047	32303.88	3.7800	3.7800	1.8894	6.45	0.46	0.750			
0.5105	32670.96	3.7770	3.7770	1.8701	6.43	0.44	0.750			
0.5162	33033.65	3.7740	3.7739	1.8894	6.41	0.42	0.750			
0.5218	33394.72	3.7710	3.7713	1.9077	6.38	0.39	0.750			
0.5275	33756.93	3.7680	3.7682	1.9367	6.35	0.36	0.750			
0.5338	34164.86	3.7650	3.7646	1.8890	6.32	0.33	0.750			
0.5395	34527.06	3.7620	3.7620	1.8189	6.29	0.30	0.750			
0.5441	34820.69	3.7590	3.7598	1.7298	6.28	0.29	0.750			
0.5491	35142.06	3.7560	3.7555	1.7283	6.27	0.28	0.750			
0.5540	35456.41	3.7530	3.7528	1.8244	6.25	0.26	0.750			
0.5597	35817.91	3.7500	3.7497	1.9397	6.22	0.23	0.750			
0.5660	36223.90	3.7470	3.7468	2.0362	6.20	0.21	0.750			
0.5721	36615.91	3.7440	3.7439	2.1048	6.18	0.19	0.750			
0.5786	37027.47	3.7410	3.7409	2.2070	6.16	0.17	0.750			
0.5852	37452.93	3.7380	3.7381	2.3104	6.14	0.15	0.750			
0.5926	37927.35	3.7350	3.7349	2.3690	6.11	0.12	0.750			
0.5998	38386.25	3.7320	3.7319	2.3697	6.09	0.10	0.750			
0.6069	38840.08	3.7290	3.7289	2.3619	6.08	0.09	0.750			
0.6139	39291.11	3.7260	3.7261	2.3720	6.06	0.07	0.750			
0.6211	39749.35	3.7230	3.7229	2.3614	6.04	0.05	0.750			
0.6280	40194.19	3.7200	3.7198	2.3211	6.02	0.03	0.750			
0.6351	40643.95	3.7170	3.7171	2.2128	6.01	0.02	0.750			
0.6415	41056.71	3.7140	3.7142	2.0510	6.00	0.01	0.750			
0.6473	41427.42	3.7110	3.7113	1.8170	5.98	-0.01	0.750			
0.6524	41756.11	3.7080	3.7079	1.6301	5.97	-0.02	0.750			
0.6568	42038.03	3.7050	3.7053	1.4425	5.97	-0.02	0.750			
0.6610	42302.83	3.7020	3.7019	1.3164	5.97	-0.02	0.750			
0.6648	42546.61	3.6990	3.6989	1.1968	5.97	-0.02	0.750			
0.6679	42748.03	3.6960	3.6961	1.0911	5.97	-0.02	0.750			
0.6711	42948.22	3.6930	3.6931	1.0333	5.96	-0.03	0.750			
0.6740	43137.88	3.6900	3.6895	0.9829	5.96	-0.03	0.750			
0.6769	43318.72	3.6870	3.6872	0.9372	5.96	-0.03	0.750			
0.6796	43494.58	3.6840	3.6840	0.8967	5.96	-0.03	0.750			
0.6823	43664.12	3.6810	3.6811	0.8719	5.95	-0.04	0.750			
0.6848	43828.11	3.6780	3.6780	0.8445	5.95	-0.04	0.750			
0.6873	43984.34	3.6750	3.6746	0.8091	5.95	-0.04	0.750			
0.6896	44137.41	3.6720	3.6721	0.7826	5.95	-0.04	0.750			
0.6920	44287.15	3.6690	3.6691	0.7553	5.96	-0.03	0.750			
0.6942	44430.89	3.6660	3.6659	0.7334	5.96	-0.03	0.750			
0.6964	44568.33	3.6630	3.6630	0.6981	5.96	-0.03	0.750			
0.6984	44699.75	3.6600	3.6600	0.6679	5.97	-0.02	0.750			
0.7004	44825.12	3.6570	3.6570	0.6365	5.97	-0.02	0.750			
0.7023	44945.99	3.6540	3.6542	0.6061	5.97	-0.02	0.750			
0.7040	45059.17	3.6510	3.6509	0.5733	5.98	-0.01	0.750			
0.7057	45165.45	3.6480	3.6480	0.5434	5.98	-0.01	0.750			
0.7073	45266.15	3.6450	3.6450	0.5076	5.98	-0.01	0.750			
0.7088	45360.44	3.6420	3.6419	0.4791	5.98	-0.01	0.750			
0.7102	45450.54	3.6390	3.6391	0.4506	5.99	-0.00	0.750			
0.7115	45534.36	3.6360	3.6361	0.4177	5.99	-0.00	0.750			
0.7127	45612.41	3.6330	3.6330	0.3854	5.99	0.00	0.750			
0.7138	45683.44	3.6300	3.6300	0.3483	5.99	0.00	0.750			
0.7148	45746.30	3.6270	3.6270	0.3109	5.99	0.00	0.750			
0.7157	45804.32	3.6240	3.6240	0.2725	6.00	0.01	0.750			
0.7164	45852.75	3.6210	3.6209	0.2306	6.00	0.01	0.750			
0.7171	45894.05	3.6180	3.6179	0.1914	6.00	0.01	0.750			
0.7176	45927.56	3.6150	3.6152	0.1501	6.00	0.01	0.750			
0.7180	45953.01	3.6120	3.6121	0.1075	6.00	0.01	0.750			
0.7183	45972.33	3.6090	3.6083	0.0607	6.00	0.01	0.750			
0.7184	45976.26	3.6030	3.6064	-0.0402	6.00	0.01	0.750			
0.7184	45979.14	3.6060	3.6025	0.0102	6.00	0.01	0.750			
