Ah_balance (normalized)	Ah_balance (mAh)	Voltage - fit (V)	Voltage -  interpolate (V)	dQ/dV (1/V)	Temperature (°C)	Temperature - diff (°C)	Current (C)	R_DC 0ms (mOhm)	R_DC 50ms (mOhm)	R_DC 50 ms PEC (mOhm)
0.0994	6360.11	4.0080	4.0075	-0.0765	5.88	0.03	-0.750			
0.0996	6377.31	4.0050	4.0047	-0.1026	5.88	0.03	-0.750			
0.1000	6399.50	4.0020	4.0019	-0.1288	5.88	0.03	-0.750			
0.1004	6426.96	3.9990	3.9991	-0.1543	5.87	0.02	-0.750			
0.1009	6459.16	3.9960	3.9960	-0.1788	5.87	0.02	-0.750			
0.1015	6496.17	3.9930	3.9930	-0.2011	5.87	0.02	-0.750			
0.1022	6538.41	3.9900	3.9900	-0.2227	5.87	0.02	-0.750			
0.1029	6582.92	3.9870	3.9871	-0.2456	5.87	0.02	-0.750			
0.1036	6632.05	3.9840	3.9841	-0.2680	5.86	0.01	-0.750			
0.1045	6685.13	3.9810	3.9810	-0.2932	5.86	0.01	-0.750			
0.1054	6743.25	3.9780	3.9780	-0.3156	5.86	0.01	-0.750			
0.1063	6806.40	3.9750	3.9750	-0.3388	5.86	0.01	-0.750			
0.1074	6874.34	3.9720	3.9719	-0.3610	5.85	0.00	-0.750			
0.1085	6946.80	3.9690	3.9691	-0.3827	5.85	-0.00	-0.750			
0.1097	7021.07	3.9660	3.9661	-0.4043	5.84	-0.01	-0.750			
0.1109	7100.54	3.9630	3.9630	-0.4255	5.84	-0.01	-0.750			
0.1122	7183.17	3.9600	3.9600	-0.4465	5.84	-0.01	-0.750			
0.1136	7272.53	3.9570	3.9569	-0.4718	5.83	-0.02	-0.750			
0.1151	7365.43	3.9540	3.9541	-0.4957	5.83	-0.02	-0.750			
0.1166	7463.57	3.9510	3.9510	-0.5151	5.82	-0.03	-0.750			
0.1182	7565.55	3.9480	3.9480	-0.5348	5.82	-0.03	-0.750			
0.1198	7669.40	3.9450	3.9449	-0.5502	5.81	-0.04	-0.750			
0.1215	7776.93	3.9420	3.9421	-0.5669	5.81	-0.04	-0.750			
0.1232	7887.31	3.9390	3.9390	-0.5801	5.81	-0.04	-0.750			
0.1250	8000.50	3.9360	3.9359	-0.5947	5.82	-0.03	-0.750			
0.1268	8115.19	3.9330	3.9331	-0.6089	5.82	-0.03	-0.750			
0.1287	8234.25	3.9300	3.9300	-0.6233	5.82	-0.03	-0.750			
0.1306	8356.04	3.9270	3.9269	-0.6347	5.83	-0.02	-0.750			
0.1325	8479.40	3.9240	3.9239	-0.6444	5.83	-0.02	-0.750			
0.1345	8605.17	3.9210	3.9210	-0.6514	5.83	-0.02	-0.750			
0.1364	8730.93	3.9180	3.9180	-0.6586	5.83	-0.02	-0.750			
0.1384	8857.09	3.9150	3.9150	-0.6686	5.83	-0.02	-0.750			
0.1404	8984.89	3.9120	3.9121	-0.6752	5.84	-0.01	-0.750			
0.1425	9116.82	3.9090	3.9088	-0.6858	5.84	-0.01	-0.750			
0.1445	9249.80	3.9060	3.9059	-0.6940	5.84	-0.01	-0.750			
0.1466	9384.32	3.9030	3.9031	-0.7040	5.84	-0.01	-0.750			
0.1488	9520.93	3.9000	3.9000	-0.7096	5.84	-0.01	-0.750			
0.1509	9657.99	3.8970	3.8970	-0.7107	5.84	-0.01	-0.750			
0.1530	9795.00	3.8940	3.8940	-0.7081	5.85	-0.00	-0.750			
0.1552	9931.14	3.8910	3.8911	-0.7138	5.85	-0.00	-0.750			
0.1573	10068.88	3.8880	3.8879	-0.7168	5.85	-0.00	-0.750			
0.1595	10205.69	3.8850	3.8849	-0.7190	5.86	0.01	-0.750			
0.1616	10343.12	3.8820	3.8820	-0.7226	5.86	0.01	-0.750			
0.1638	10483.09	3.8790	3.8791	-0.7325	5.87	0.02	-0.750			
0.1660	10625.83	3.8760	3.8759	-0.7386	5.88	0.03	-0.750			
0.1683	10768.65	3.8730	3.8730	-0.7419	5.89	0.04	-0.750			
0.1705	10911.33	3.8700	3.8702	-0.7391	5.90	0.05	-0.750			
0.1727	11053.76	3.8670	3.8669	-0.7426	5.91	0.06	-0.750			
0.1749	11196.45	3.8640	3.8641	-0.7438	5.91	0.06	-0.750			
0.1772	11339.31	3.8610	3.8610	-0.7436	5.92	0.07	-0.750			
0.1794	11482.06	3.8580	3.8578	-0.7481	5.92	0.07	-0.750			
0.1816	11625.55	3.8550	3.8551	-0.7482	5.93	0.08	-0.750			
0.1839	11769.21	3.8520	3.8520	-0.7486	5.93	0.08	-0.750			
0.1861	11913.26	3.8490	3.8489	-0.7500	5.93	0.08	-0.750			
0.1884	12056.86	3.8460	3.8460	-0.7492	5.94	0.09	-0.750			
0.1906	12201.00	3.8430	3.8430	-0.7540	5.94	0.09	-0.750			
0.1929	12345.70	3.8400	3.8400	-0.7569	5.95	0.10	-0.750			
0.1952	12491.85	3.8370	3.8369	-0.7599	5.95	0.10	-0.750			
0.1975	12638.67	3.8340	3.8339	-0.7576	5.96	0.11	-0.750			
0.1997	12783.62	3.8310	3.8310	-0.7599	5.97	0.12	-0.750			
0.2020	12929.17	3.8280	3.8281	-0.7611	5.98	0.13	-0.750			
0.2043	13075.53	3.8250	3.8249	-0.7607	5.98	0.13	-0.750			
0.2066	13221.08	3.8220	3.8219	-0.7601	5.99	0.14	-0.750			
0.2089	13366.85	3.8190	3.8191	-0.7638	6.00	0.15	-0.750			
0.2112	13514.89	3.8160	3.8160	-0.7660	6.01	0.16	-0.750			
0.2135	13663.51	3.8130	3.8129	-0.7640	6.02	0.17	-0.750			
0.2158	13808.43	3.8100	3.8100	-0.7592	6.02	0.17	-0.750			
0.2180	13954.24	3.8070	3.8071	-0.7611	6.03	0.18	-0.750			
0.2203	14099.89	3.8040	3.8040	-0.7651	6.04	0.19	-0.750			
0.2226	14246.83	3.8010	3.8009	-0.7637	6.04	0.19	-0.750			
0.2249	14390.79	3.7980	3.7980	-0.7707	6.05	0.20	-0.750			
0.2272	14542.19	3.7950	3.7950	-0.7710	6.06	0.21	-0.750			
0.2296	14691.32	3.7920	3.7919	-0.7704	6.06	0.21	-0.750			
0.2319	14839.63	3.7890	3.7890	-0.7708	6.07	0.22	-0.750			
0.2342	14987.29	3.7860	3.7859	-0.7693	6.07	0.22	-0.750			
0.2365	15133.78	3.7830	3.7829	-0.7678	6.08	0.23	-0.750			
0.2388	15281.98	3.7800	3.7800	-0.7751	6.09	0.24	-0.750			
0.2411	15429.79	3.7770	3.7770	-0.7718	6.10	0.25	-0.750			
0.2435	15581.13	3.7740	3.7739	-0.7772	6.10	0.25	-0.750			
0.2458	15730.13	3.7710	3.7713	-0.7767	6.11	0.26	-0.750			
0.2481	15878.57	3.7680	3.7679	-0.7765	6.12	0.27	-0.750			
0.2504	16026.82	3.7650	3.7650	-0.7789	6.13	0.28	-0.750			
0.2527	16175.97	3.7620	3.7619	-0.7812	6.14	0.29	-0.750			
0.2551	16326.95	3.7590	3.7590	-0.7866	6.16	0.31	-0.750			
0.2575	16478.74	3.7560	3.7559	-0.7880	6.17	0.32	-0.750			
0.2599	16631.87	3.7530	3.7530	-0.7887	6.17	0.32	-0.750			
0.2622	16781.46	3.7500	3.7500	-0.7954	6.18	0.33	-0.750			
0.2646	16933.79	3.7470	3.7470	-0.7937	6.18	0.33	-0.750			
0.2670	17086.64	3.7440	3.7440	-0.7948	6.18	0.33	-0.750			
0.2694	17239.86	3.7410	3.7409	-0.7987	6.19	0.34	-0.750			
0.2718	17393.01	3.7380	3.7380	-0.8029	6.19	0.34	-0.750			
0.2742	17547.06	3.7350	3.7350	-0.8097	6.20	0.35	-0.750			
0.2766	17703.55	3.7320	3.7320	-0.8108	6.21	0.36	-0.750			
0.2790	17857.62	3.7290	3.7290	-0.8105	6.22	0.37	-0.750			
0.2815	18016.51	3.7260	3.7259	-0.8213	6.23	0.38	-0.750			
0.2840	18175.01	3.7230	3.7230	-0.8239	6.24	0.39	-0.750			
0.2864	18331.95	3.7200	3.7200	-0.8304	6.25	0.40	-0.750			
0.2889	18492.54	3.7170	3.7170	-0.8327	6.26	0.41	-0.750			
0.2914	18652.01	3.7140	3.7140	-0.8369	6.27	0.42	-0.750			
0.2940	18814.42	3.7110	3.7110	-0.8504	6.27	0.42	-0.750			
0.2965	18978.12	3.7080	3.7081	-0.8549	6.28	0.43	-0.750			
0.2991	19142.63	3.7050	3.7049	-0.8665	6.29	0.44	-0.750			
0.3017	19310.28	3.7020	3.7020	-0.8759	6.29	0.44	-0.750			
0.3044	19479.47	3.6990	3.6990	-0.8808	6.30	0.45	-0.750			
0.3071	19651.27	3.6960	3.6960	-0.8902	6.31	0.46	-0.750			
0.3097	19822.12	3.6930	3.6930	-0.8955	6.32	0.47	-0.750			
0.3124	19994.01	3.6900	3.6900	-0.9074	6.32	0.47	-0.750			
0.3152	20170.27	3.6870	3.6869	-0.9149	6.33	0.48	-0.750			
0.3179	20345.69	3.6840	3.6840	-0.9198	6.34	0.49	-0.750			
0.3207	20524.67	3.6810	3.6812	-0.9317	6.35	0.50	-0.750			
0.3235	20703.72	3.6780	3.6780	-0.9453	6.35	0.50	-0.750			
0.3264	20886.90	3.6750	3.6749	-0.9525	6.36	0.51	-0.750			
0.3292	21070.15	3.6720	3.6719	-0.9547	6.36	0.51	-0.750			
0.3321	21254.44	3.6690	3.6690	-0.9697	6.37	0.52	-0.750			
0.3350	21440.64	3.6660	3.6660	-0.9809	6.37	0.52	-0.750			
0.3380	21629.54	3.6630	3.6629	-0.9908	6.38	0.53	-0.750			
0.3409	21820.12	3.6600	3.6599	-1.0014	6.39	0.54	-0.750			
0.3439	22012.47	3.6570	3.6570	-1.0101	6.40	0.55	-0.750			
0.3470	22210.86	3.6540	3.6541	-1.0309	6.40	0.55	-0.750			
0.3502	22410.57	3.6510	3.6510	-1.0398	6.41	0.56	-0.750			
0.3533	22609.66	3.6480	3.6480	-1.0459	6.41	0.56	-0.750			
0.3564	22810.58	3.6450	3.6450	-1.0502	6.42	0.57	-0.750			
0.3596	23014.48	3.6420	3.6421	-1.0689	6.42	0.57	-0.750			
0.3628	23220.92	3.6390	3.6390	-1.0802	6.43	0.58	-0.750			
0.3661	23429.36	3.6360	3.6359	-1.0914	6.44	0.59	-0.750			
0.3694	23639.50	3.6330	3.6330	-1.1029	6.45	0.60	-0.750			
0.3727	23853.62	3.6300	3.6301	-1.1133	6.45	0.60	-0.750			
0.3761	24069.73	3.6270	3.6270	-1.1231	6.46	0.61	-0.750			
0.3795	24285.88	3.6240	3.6240	-1.1345	6.46	0.61	-0.750			
0.3828	24500.99	3.6210	3.6210	-1.1474	6.47	0.62	-0.750			
0.3863	24723.81	3.6180	3.6180	-1.1630	6.47	0.62	-0.750			
0.3898	24949.31	3.6150	3.6150	-1.1760	6.47	0.62	-0.750			
0.3934	25175.82	3.6120	3.6120	-1.1931	6.47	0.62	-0.750			
0.3970	25408.10	3.6090	3.6091	-1.2076	6.47	0.62	-0.750			
0.4007	25641.82	3.6060	3.6060	-1.2242	6.48	0.63	-0.750			
0.4044	25879.31	3.6030	3.6029	-1.2291	6.49	0.64	-0.750			
0.4080	26114.44	3.6000	3.6001	-1.2411	6.50	0.65	-0.750			
0.4118	26355.86	3.5970	3.5971	-1.2542	6.50	0.65	-0.750	0.454	1.081	
0.4156	26598.57	3.5940	3.5939	-1.2634	6.51	0.66	-0.750			
0.4194	26838.54	3.5910	3.5909	-1.2782	6.51	0.66	-0.750			
0.4232	27085.67	3.5880	3.5880	-1.2883	6.51	0.66	-0.750			
0.4271	27332.54	3.5850	3.5850	-1.3044	6.52	0.67	-0.750			
0.4310	27585.96	3.5820	3.5819	-1.3320	6.53	0.68	-0.750			
0.4351	27843.44	3.5790	3.5790	-1.3412	6.53	0.68	-0.750			
0.4392	28105.89	3.5760	3.5759	-1.3593	6.54	0.69	-0.750			
0.4432	28366.48	3.5730	3.5730	-1.3775	6.55	0.70	-0.750			
0.4474	28632.86	3.5700	3.5701	-1.3788	6.55	0.70	-0.750			
0.4516	28901.12	3.5670	3.5669	-1.3949	6.56	0.71	-0.750			
0.4557	29166.74	3.5640	3.5640	-1.4062	6.57	0.72	-0.750			
0.4600	29437.96	3.5610	3.5610	-1.4130	6.57	0.72	-0.750			
0.4643	29713.64	3.5580	3.5579	-1.4292	6.57	0.72	-0.750			
0.4686	29988.95	3.5550	3.5548	-1.4409	6.57	0.72	-0.750			
0.4728	30262.21	3.5520	3.5521	-1.4582	6.57	0.72	-0.750			
0.4773	30548.15	3.5490	3.5489	-1.4790	6.58	0.73	-0.750			
0.4817	30831.99	3.5460	3.5459	-1.4899	6.59	0.74	-0.750			
0.4862	31118.34	3.5430	3.5429	-1.5023	6.59	0.74	-0.750			
0.4909	31414.94	3.5400	3.5400	-1.5259	6.60	0.75	-0.750			
0.4955	31709.66	3.5370	3.5371	-1.5480	6.60	0.75	-0.750			
0.5001	32007.91	3.5340	3.5340	-1.5524	6.60	0.75	-0.750			
0.5048	32308.22	3.5310	3.5309	-1.5609	6.61	0.76	-0.750			
0.5096	32615.13	3.5280	3.5280	-1.5653	6.61	0.76	-0.750			
0.5143	32917.39	3.5250	3.5251	-1.5770	6.62	0.77	-0.750			
0.5191	33220.41	3.5220	3.5221	-1.5571	6.63	0.78	-0.750			
0.5237	33515.32	3.5190	3.5190	-1.5652	6.63	0.78	-0.750			
0.5283	33808.56	3.5160	3.5163	-1.5925	6.64	0.79	-0.750			
0.5332	34126.72	3.5130	3.5128	-1.6075	6.65	0.80	-0.750			
0.5381	34439.46	3.5100	3.5101	-1.6236	6.66	0.81	-0.750			
0.5430	34753.78	3.5070	3.5071	-1.6407	6.67	0.82	-0.750			
0.5480	35074.17	3.5040	3.5039	-1.6526	6.67	0.82	-0.750			
0.5530	35389.98	3.5010	3.5010	-1.6316	6.68	0.83	-0.750			
0.5578	35698.95	3.4980	3.4979	-1.6044	6.69	0.84	-0.750			
0.5625	36000.00	3.4950	3.4951	-1.6069	6.70	0.85	-0.750			
0.5674	36315.38	3.4920	3.4921	-1.6055	6.70	0.85	-0.750			
0.5722	36623.33	3.4890	3.4889	-1.5680	6.71	0.86	-0.750			
0.5769	36923.26	3.4860	3.4859	-1.5315	6.72	0.87	-0.750			
0.5815	37216.92	3.4830	3.4831	-1.5155	6.73	0.88	-0.750			
0.5859	37499.57	3.4800	3.4802	-1.4980	6.73	0.88	-0.750			
0.5903	37779.24	3.4770	3.4765	-1.5051	6.74	0.89	-0.750			
0.5947	38060.08	3.4740	3.4742	-1.4992	6.75	0.90	-0.750			
0.5993	38358.10	3.4710	3.4709	-1.5213	6.76	0.91	-0.750			
0.6041	38661.85	3.4680	3.4677	-1.5482	6.78	0.93	-0.750			
0.6088	38961.07	3.4650	3.4651	-1.5300	6.79	0.94	-0.750			
0.6133	39249.91	3.4620	3.4621	-1.5176	6.80	0.95	-0.750			
0.6178	39536.97	3.4590	3.4589	-1.4960	6.81	0.96	-0.750			
0.6222	39822.47	3.4560	3.4560	-1.4619	6.82	0.97	-0.750			
0.6267	40110.16	3.4530	3.4529	-1.4580	6.83	0.98	-0.750			
0.6310	40383.82	3.4500	3.4500	-1.4459	6.84	0.99	-0.750			
0.6353	40657.17	3.4470	3.4470	-1.4196	6.86	1.01	-0.750			
0.6396	40932.01	3.4440	3.4438	-1.4046	6.87	1.02	-0.750			
0.6437	41195.67	3.4410	3.4409	-1.3819	6.88	1.03	-0.750			
0.6479	41463.02	3.4380	3.4380	-1.3624	6.89	1.04	-0.750			
0.6520	41727.34	3.4350	3.4349	-1.3400	6.90	1.05	-0.750			
0.6559	41980.08	3.4320	3.4320	-1.3070	6.91	1.06	-0.750			
0.6598	42224.30	3.4290	3.4291	-1.2693	6.92	1.07	-0.750			
0.6636	42468.61	3.4260	3.4260	-1.2561	6.93	1.08	-0.750			
0.6673	42706.94	3.4230	3.4229	-1.2324	6.94	1.09	-0.750			
0.6709	42937.52	3.4200	3.4202	-1.2078	6.95	1.10	-0.750			
0.6746	43172.45	3.4170	3.4170	-1.1813	6.96	1.11	-0.750			
0.6781	43399.40	3.4140	3.4140	-1.1570	6.97	1.12	-0.750			
0.6815	43617.50	3.4110	3.4110	-1.1273	6.99	1.14	-0.750			
0.6849	43830.43	3.4080	3.4079	-1.0989	7.00	1.15	-0.750			
0.6881	44036.41	3.4050	3.4049	-1.0688	7.01	1.16	-0.750			
0.6912	44238.27	3.4020	3.4020	-1.0418	7.02	1.17	-0.750			
0.6943	44436.22	3.3990	3.3990	-1.0142	7.03	1.18	-0.750			
0.6974	44631.73	3.3960	3.3959	-0.9924	7.05	1.20	-0.750			
0.7003	44818.48	3.3930	3.3930	-0.9650	7.06	1.21	-0.750			
0.7031	45000.96	3.3900	3.3900	-0.9381	7.07	1.22	-0.750			
0.7059	45177.89	3.3870	3.3870	-0.9119	7.08	1.23	-0.750			
0.7086	45351.12	3.3840	3.3841	-0.8880	7.09	1.24	-0.750			
0.7112	45519.72	3.3810	3.3809	-0.8613	7.10	1.25	-0.750			
0.7138	45682.21	3.3780	3.3780	-0.8407	7.11	1.26	-0.750			
0.7163	45840.34	3.3750	3.3750	-0.8174	7.12	1.27	-0.750			
0.7187	45995.57	3.3720	3.3719	-0.7986	7.13	1.28	-0.750			
0.7210	46146.70	3.3690	3.3691	-0.7762	7.14	1.29	-0.750			
0.7233	46293.38	3.3660	3.3659	-0.7556	7.15	1.30	-0.750			
0.7256	46436.49	3.3630	3.3630	-0.7360	7.16	1.31	-0.750			
0.7277	46575.14	3.3600	3.3600	-0.7054	7.17	1.32	-0.750			
