Ah_balance (normalized)	Ah_balance (mAh)	Voltage - fit (V)	Voltage -  interpolate (V)	dQ/dV (1/V)	Temperature (°C)	Temperature - diff (°C)	Current (C)	R_DC 0ms (mOhm)	R_DC 50ms (mOhm)	R_DC 50 ms PEC (mOhm)
0.0937	5997.45	4.0020	4.0013	-0.0731	6.00	0.01	-0.750			
0.0940	6014.31	3.9990	3.9988	-0.1025	6.00	0.01	-0.750			
0.0943	6037.35	3.9960	3.9959	-0.1310	6.00	0.01	-0.750			
0.0948	6065.64	3.9930	3.9931	-0.1571	6.00	0.01	-0.750			
0.0953	6098.34	3.9900	3.9901	-0.1828	5.99	0.00	-0.750			
0.0959	6136.11	3.9870	3.9870	-0.2064	5.99	0.00	-0.750			
0.0966	6179.90	3.9840	3.9839	-0.2284	5.99	0.00	-0.750			
0.0973	6225.74	3.9810	3.9810	-0.2499	5.99	-0.00	-0.750			
0.0981	6275.81	3.9780	3.9780	-0.2708	5.99	-0.00	-0.750			
0.0989	6329.12	3.9750	3.9751	-0.2949	5.98	-0.01	-0.750			
0.0998	6386.99	3.9720	3.9720	-0.3194	5.98	-0.01	-0.750			
0.1008	6450.12	3.9690	3.9690	-0.3436	5.98	-0.01	-0.750			
0.1019	6518.86	3.9660	3.9660	-0.3706	5.97	-0.02	-0.750			
0.1030	6594.09	3.9630	3.9630	-0.3960	5.97	-0.02	-0.750			
0.1042	6671.62	3.9600	3.9601	-0.4211	5.97	-0.02	-0.750			
0.1056	6756.79	3.9570	3.9570	-0.4406	5.96	-0.03	-0.750			
0.1069	6843.18	3.9540	3.9540	-0.4569	5.96	-0.03	-0.750			
0.1083	6932.61	3.9510	3.9509	-0.4751	5.95	-0.04	-0.750			
0.1098	7026.23	3.9480	3.9480	-0.4898	5.95	-0.04	-0.750			
0.1113	7120.04	3.9450	3.9450	-0.5088	5.95	-0.04	-0.750			
0.1128	7218.94	3.9420	3.9421	-0.5294	5.95	-0.04	-0.750			
0.1144	7320.71	3.9390	3.9390	-0.5490	5.95	-0.04	-0.750			
0.1161	7431.29	3.9360	3.9359	-0.5716	5.95	-0.04	-0.750			
0.1179	7543.84	3.9330	3.9331	-0.5881	5.95	-0.04	-0.750			
0.1197	7659.61	3.9300	3.9300	-0.5981	5.95	-0.04	-0.750			
0.1215	7778.27	3.9270	3.9271	-0.6110	5.95	-0.04	-0.750			
0.1233	7893.88	3.9240	3.9239	-0.6164	5.95	-0.04	-0.750			
0.1252	8011.99	3.9210	3.9210	-0.6213	5.95	-0.04	-0.750			
0.1270	8130.21	3.9180	3.9180	-0.6373	5.95	-0.04	-0.750			
0.1290	8254.66	3.9150	3.9148	-0.6483	5.95	-0.04	-0.750			
0.1310	8382.59	3.9120	3.9120	-0.6580	5.95	-0.04	-0.750			
0.1330	8510.31	3.9090	3.9090	-0.6667	5.95	-0.04	-0.750			
0.1350	8640.53	3.9060	3.9062	-0.6726	5.95	-0.04	-0.750			
0.1370	8770.43	3.9030	3.9029	-0.6760	5.95	-0.04	-0.750			
0.1391	8899.57	3.9000	3.8999	-0.6793	5.96	-0.03	-0.750			
0.1411	9028.37	3.8970	3.8971	-0.6757	5.96	-0.03	-0.750			
0.1431	9159.17	3.8940	3.8940	-0.6864	5.96	-0.03	-0.750			
0.1452	9292.37	3.8910	3.8910	-0.6926	5.97	-0.02	-0.750			
0.1473	9425.46	3.8880	3.8880	-0.6920	5.97	-0.02	-0.750			
0.1494	9558.79	3.8850	3.8850	-0.6992	5.97	-0.02	-0.750			
0.1514	9692.46	3.8820	3.8821	-0.7068	5.98	-0.01	-0.750			
0.1536	9829.34	3.8790	3.8789	-0.7090	5.98	-0.01	-0.750			
0.1557	9967.37	3.8760	3.8759	-0.7122	5.98	-0.01	-0.750			
0.1579	10103.93	3.8730	3.8730	-0.7093	5.99	-0.00	-0.750			
0.1600	10240.72	3.8700	3.8700	-0.7146	5.99	0.00	-0.750			
0.1622	10377.95	3.8670	3.8670	-0.7176	6.00	0.01	-0.750			
0.1643	10513.39	3.8640	3.8640	-0.7193	6.00	0.01	-0.750			
0.1664	10652.52	3.8610	3.8608	-0.7179	6.01	0.02	-0.750			
0.1686	10792.69	3.8580	3.8580	-0.7216	6.01	0.02	-0.750			
0.1708	10931.98	3.8550	3.8550	-0.7217	6.02	0.03	-0.750			
0.1730	11069.57	3.8520	3.8520	-0.7209	6.02	0.03	-0.750			
0.1751	11206.43	3.8490	3.8490	-0.7180	6.03	0.04	-0.750			
0.1773	11344.07	3.8460	3.8460	-0.7227	6.03	0.04	-0.750			
0.1794	11482.50	3.8430	3.8430	-0.7253	6.04	0.05	-0.750			
0.1816	11624.10	3.8400	3.8400	-0.7295	6.04	0.05	-0.750			
0.1838	11765.04	3.8370	3.8370	-0.7312	6.05	0.06	-0.750			
0.1860	11905.93	3.8340	3.8340	-0.7270	6.06	0.07	-0.750			
0.1882	12044.30	3.8310	3.8310	-0.7262	6.06	0.07	-0.750			
0.1904	12183.87	3.8280	3.8280	-0.7319	6.07	0.08	-0.750			
0.1926	12324.15	3.8250	3.8248	-0.7293	6.08	0.09	-0.750			
0.1948	12464.23	3.8220	3.8219	-0.7332	6.08	0.09	-0.750			
0.1970	12606.12	3.8190	3.8192	-0.7308	6.09	0.10	-0.750			
0.1992	12747.00	3.8160	3.8159	-0.7317	6.10	0.11	-0.750			
0.2013	12885.99	3.8130	3.8131	-0.7419	6.10	0.11	-0.750			
0.2036	13027.38	3.8100	3.8099	-0.7353	6.11	0.12	-0.750			
0.2058	13170.83	3.8070	3.8069	-0.7416	6.12	0.13	-0.750			
0.2080	13313.87	3.8040	3.8039	-0.7399	6.13	0.14	-0.750			
0.2102	13455.72	3.8010	3.8009	-0.7380	6.13	0.14	-0.750			
0.2125	13598.06	3.7980	3.7979	-0.7384	6.14	0.15	-0.750			
0.2146	13737.37	3.7950	3.7949	-0.7366	6.14	0.15	-0.750			
0.2168	13877.06	3.7920	3.7920	-0.7330	6.15	0.16	-0.750			
0.2191	14021.64	3.7890	3.7889	-0.7417	6.15	0.16	-0.750			
0.2213	14163.81	3.7860	3.7862	-0.7414	6.16	0.17	-0.750			
0.2235	14305.81	3.7830	3.7829	-0.7494	6.16	0.17	-0.750			
0.2258	14449.57	3.7800	3.7800	-0.7510	6.17	0.18	-0.750			
0.2281	14595.32	3.7770	3.7769	-0.7541	6.18	0.19	-0.750			
0.2303	14739.95	3.7740	3.7741	-0.7549	6.18	0.19	-0.750			
0.2326	14887.85	3.7710	3.7710	-0.7607	6.19	0.20	-0.750			
0.2349	15032.69	3.7680	3.7681	-0.7604	6.19	0.20	-0.750			
0.2371	15177.56	3.7650	3.7649	-0.7619	6.19	0.20	-0.750			
0.2394	15322.86	3.7620	3.7620	-0.7647	6.20	0.21	-0.750			
0.2417	15470.03	3.7590	3.7588	-0.7695	6.20	0.21	-0.750			
0.2441	15621.44	3.7560	3.7561	-0.7752	6.21	0.22	-0.750			
0.2464	15770.41	3.7530	3.7529	-0.7747	6.21	0.22	-0.750			
0.2487	15919.98	3.7500	3.7500	-0.7748	6.22	0.23	-0.750			
0.2511	16068.04	3.7470	3.7470	-0.7799	6.23	0.24	-0.750			
0.2534	16214.75	3.7440	3.7440	-0.7866	6.24	0.25	-0.750			
0.2557	16366.37	3.7410	3.7410	-0.7965	6.25	0.26	-0.750			
0.2581	16521.02	3.7380	3.7378	-0.7991	6.26	0.27	-0.750			
0.2606	16675.66	3.7350	3.7351	-0.8072	6.26	0.27	-0.750			
0.2630	16831.22	3.7320	3.7321	-0.8147	6.27	0.28	-0.750			
0.2654	16988.57	3.7290	3.7288	-0.8172	6.27	0.28	-0.750			
0.2679	17144.28	3.7260	3.7260	-0.8194	6.28	0.29	-0.750			
0.2704	17303.14	3.7230	3.7229	-0.8231	6.29	0.30	-0.750			
0.2729	17462.50	3.7200	3.7200	-0.8298	6.29	0.30	-0.750			
0.2754	17622.46	3.7170	3.7170	-0.8387	6.30	0.31	-0.750			
0.2778	17782.28	3.7140	3.7140	-0.8396	6.30	0.31	-0.750			
0.2804	17942.83	3.7110	3.7110	-0.8455	6.31	0.32	-0.750			
0.2829	18107.53	3.7080	3.7079	-0.8565	6.32	0.33	-0.750			
0.2855	18273.13	3.7050	3.7050	-0.8577	6.32	0.33	-0.750			
0.2881	18439.12	3.7020	3.7020	-0.8661	6.33	0.34	-0.750			
0.2907	18605.60	3.6990	3.6990	-0.8695	6.34	0.35	-0.750			
0.2933	18770.84	3.6960	3.6960	-0.8741	6.34	0.35	-0.750			
0.2960	18942.00	3.6930	3.6930	-0.8802	6.35	0.36	-0.750			
0.2985	19106.99	3.6900	3.6900	-0.8932	6.35	0.36	-0.750			
0.3013	19281.57	3.6870	3.6870	-0.9003	6.36	0.37	-0.750			
0.3040	19457.54	3.6840	3.6840	-0.9081	6.36	0.37	-0.750			
0.3067	19630.79	3.6810	3.6809	-0.9115	6.37	0.38	-0.750			
0.3095	19807.51	3.6780	3.6784	-0.9227	6.37	0.38	-0.750			
0.3123	19984.15	3.6750	3.6750	-0.9379	6.37	0.38	-0.750			
0.3151	20166.56	3.6720	3.6719	-0.9488	6.37	0.38	-0.750			
0.3179	20348.19	3.6690	3.6690	-0.9528	6.38	0.39	-0.750			
0.3209	20536.09	3.6660	3.6661	-0.9664	6.38	0.39	-0.750			
0.3238	20720.38	3.6630	3.6630	-0.9739	6.38	0.39	-0.750			
0.3267	20907.82	3.6600	3.6599	-0.9794	6.39	0.40	-0.750			
0.3296	21096.10	3.6570	3.6570	-0.9834	6.40	0.41	-0.750			
0.3326	21283.55	3.6540	3.6540	-0.9894	6.41	0.42	-0.750			
0.3356	21476.02	3.6510	3.6511	-1.0097	6.41	0.42	-0.750			
0.3386	21672.36	3.6480	3.6479	-1.0134	6.42	0.43	-0.750			
0.3417	21868.32	3.6450	3.6450	-1.0224	6.42	0.43	-0.750			
0.3447	22063.77	3.6420	3.6420	-1.0255	6.43	0.44	-0.750			
0.3478	22260.74	3.6390	3.6392	-1.0400	6.43	0.44	-0.750			
0.3510	22461.75	3.6360	3.6359	-1.0451	6.43	0.44	-0.750			
0.3541	22662.98	3.6330	3.6329	-1.0453	6.43	0.44	-0.750			
0.3572	22863.91	3.6300	3.6300	-1.0503	6.43	0.44	-0.750			
0.3604	23067.20	3.6270	3.6270	-1.0659	6.43	0.44	-0.750			
0.3636	23270.45	3.6240	3.6240	-1.0768	6.43	0.44	-0.750			
0.3669	23478.88	3.6210	3.6210	-1.0888	6.44	0.45	-0.750			
0.3701	23686.97	3.6180	3.6178	-1.0966	6.44	0.45	-0.750			
0.3735	23901.76	3.6150	3.6150	-1.1187	6.44	0.45	-0.750			
0.3769	24121.14	3.6120	3.6120	-1.1253	6.44	0.45	-0.750			
0.3803	24336.49	3.6090	3.6088	-1.1289	6.45	0.46	-0.750			
0.3836	24553.10	3.6060	3.6062	-1.1329	6.45	0.46	-0.750			
0.3871	24772.60	3.6030	3.6029	-1.1452	6.45	0.46	-0.750			
0.3905	24993.86	3.6000	3.5999	-1.1525	6.46	0.47	-0.750			
0.3940	25214.45	3.5970	3.5970	-1.1638	6.47	0.48	-0.750			
0.3975	25437.67	3.5940	3.5941	-1.1730	6.47	0.48	-0.750			
0.4011	25668.44	3.5910	3.5909	-1.1881	6.48	0.49	-0.750			
0.4046	25895.63	3.5880	3.5882	-1.1889	6.48	0.49	-0.750	0.491	1.074	
0.4082	26123.56	3.5850	3.5851	-1.1941	6.49	0.50	-0.750			
0.4118	26356.20	3.5820	3.5819	-1.2152	6.49	0.50	-0.750			
0.4154	26588.28	3.5790	3.5789	-1.2222	6.49	0.50	-0.750			
0.4191	26822.01	3.5760	3.5760	-1.2298	6.49	0.50	-0.750			
0.4228	27059.29	3.5730	3.5731	-1.2499	6.49	0.50	-0.750			
0.4267	27305.72	3.5700	3.5699	-1.2648	6.50	0.51	-0.750			
0.4305	27549.48	3.5670	3.5669	-1.2739	6.50	0.51	-0.750			
0.4342	27791.57	3.5640	3.5643	-1.2834	6.51	0.52	-0.750			
0.4382	28041.62	3.5610	3.5610	-1.3024	6.51	0.52	-0.750			
0.4421	28294.51	3.5580	3.5578	-1.3089	6.51	0.52	-0.750			
0.4460	28545.16	3.5550	3.5551	-1.3274	6.51	0.52	-0.750			
0.4501	28803.76	3.5520	3.5520	-1.3428	6.52	0.53	-0.750			
0.4541	29062.18	3.5490	3.5490	-1.3524	6.52	0.53	-0.750			
0.4582	29321.71	3.5460	3.5460	-1.3627	6.53	0.54	-0.750			
0.4622	29583.97	3.5430	3.5430	-1.3738	6.53	0.54	-0.750			
0.4664	29850.45	3.5400	3.5400	-1.3884	6.53	0.54	-0.750			
0.4706	30119.13	3.5370	3.5370	-1.3968	6.53	0.54	-0.750			
0.4748	30385.30	3.5340	3.5340	-1.4032	6.53	0.54	-0.750			
0.4790	30655.96	3.5310	3.5310	-1.4306	6.54	0.55	-0.750			
0.4833	30932.67	3.5280	3.5281	-1.4470	6.55	0.56	-0.750			
0.4877	31212.52	3.5250	3.5249	-1.4668	6.56	0.57	-0.750			
0.4922	31502.53	3.5220	3.5218	-1.4780	6.56	0.57	-0.750			
0.4967	31789.63	3.5190	3.5192	-1.4896	6.57	0.58	-0.750			
0.5012	32076.58	3.5160	3.5162	-1.4932	6.58	0.59	-0.750			
0.5057	32362.55	3.5130	3.5128	-1.4893	6.58	0.59	-0.750			
0.5101	32646.31	3.5100	3.5102	-1.4854	6.59	0.60	-0.750			
0.5145	32929.94	3.5070	3.5068	-1.4890	6.60	0.61	-0.750			
0.5190	33214.30	3.5040	3.5040	-1.4947	6.61	0.62	-0.750			
0.5235	33503.69	3.5010	3.5010	-1.5193	6.62	0.63	-0.750			
0.5281	33799.50	3.4980	3.4979	-1.5302	6.63	0.64	-0.750			
0.5327	34092.68	3.4950	3.4951	-1.5264	6.65	0.66	-0.750			
0.5374	34390.99	3.4920	3.4918	-1.5227	6.66	0.67	-0.750			
0.5420	34685.65	3.4890	3.4887	-1.5196	6.66	0.67	-0.750			
0.5465	34975.52	3.4860	3.4862	-1.5109	6.67	0.68	-0.750			
0.5510	35262.50	3.4830	3.4829	-1.5071	6.68	0.69	-0.750			
0.5554	35546.85	3.4800	3.4800	-1.5168	6.70	0.71	-0.750			
0.5601	35843.64	3.4770	3.4770	-1.5005	6.71	0.72	-0.750			
0.5646	36136.16	3.4740	3.4740	-1.5191	6.72	0.73	-0.750			
0.5692	36428.74	3.4710	3.4711	-1.5162	6.73	0.74	-0.750			
0.5737	36719.93	3.4680	3.4678	-1.4985	6.74	0.75	-0.750			
0.5782	37006.82	3.4650	3.4649	-1.4923	6.76	0.77	-0.750			
0.5827	37289.81	3.4620	3.4620	-1.4882	6.77	0.78	-0.750			
0.5871	37576.55	3.4590	3.4588	-1.4858	6.79	0.80	-0.750			
0.5917	37866.72	3.4560	3.4560	-1.4560	6.81	0.82	-0.750			
0.5959	38138.29	3.4530	3.4532	-1.4355	6.83	0.84	-0.750			
0.6002	38411.67	3.4500	3.4501	-1.4207	6.84	0.85	-0.750			
0.6045	38685.31	3.4470	3.4467	-1.4110	6.85	0.86	-0.750			
0.6086	38951.04	3.4440	3.4442	-1.3985	6.87	0.88	-0.750			
0.6128	39217.30	3.4410	3.4410	-1.3894	6.89	0.90	-0.750			
0.6171	39492.11	3.4380	3.4380	-1.3834	6.91	0.92	-0.750			
0.6212	39759.89	3.4350	3.4351	-1.3694	6.93	0.94	-0.750			
0.6252	40015.76	3.4320	3.4320	-1.3379	6.95	0.96	-0.750			
0.6293	40274.17	3.4290	3.4290	-1.3185	6.97	0.98	-0.750			
0.6332	40523.66	3.4260	3.4261	-1.2978	6.99	1.00	-0.750			
0.6370	40770.27	3.4230	3.4229	-1.2658	7.00	1.01	-0.750			
0.6408	41013.84	3.4200	3.4199	-1.2412	7.02	1.03	-0.750			
0.6445	41248.59	3.4170	3.4170	-1.2170	7.04	1.05	-0.750			
0.6481	41478.61	3.4140	3.4141	-1.1902	7.06	1.07	-0.750			
0.6517	41706.73	3.4110	3.4109	-1.1675	7.08	1.09	-0.750			
0.6551	41928.37	3.4080	3.4079	-1.1438	7.10	1.11	-0.750			
0.6585	42144.04	3.4050	3.4051	-1.1175	7.12	1.13	-0.750			
0.6619	42359.70	3.4020	3.4019	-1.0924	7.13	1.14	-0.750			
0.6651	42567.82	3.3990	3.3990	-1.0641	7.15	1.16	-0.750			
0.6682	42767.86	3.3960	3.3960	-1.0348	7.17	1.18	-0.750			
0.6713	42962.01	3.3930	3.3931	-1.0084	7.19	1.20	-0.750			
0.6743	43152.23	3.3900	3.3899	-0.9934	7.21	1.22	-0.750			
0.6772	43343.18	3.3870	3.3870	-0.9668	7.23	1.24	-0.750			
0.6801	43527.21	3.3840	3.3839	-0.9438	7.24	1.25	-0.750			
0.6829	43707.19	3.3810	3.3810	-0.9186	7.26	1.27	-0.750			
0.6857	43881.90	3.3780	3.3781	-0.8915	7.28	1.29	-0.750			
0.6883	44049.37	3.3750	3.3749	-0.8706	7.30	1.31	-0.750			
0.6908	44212.59	3.3720	3.3719	-0.8427	7.31	1.32	-0.750			
0.6933	44371.40	3.3690	3.3690	-0.8199	7.33	1.34	-0.750			
0.6958	44529.19	3.3660	3.3658	-0.8040	7.34	1.35	-0.750			
0.6981	44681.56	3.3630	3.3629	-0.7841	7.36	1.37	-0.750			
0.7005	44830.31	3.3600	3.3600	-0.7634	7.38	1.39	-0.750			
0.7027	44973.83	3.3570	3.3570	-0.7475	7.40	1.41	-0.750			
0.7049	45114.98	3.3540	3.3540	-0.7210	7.42	1.43	-0.750			
0.7071	45255.97	3.3510	3.3510	-0.7094	7.43	1.44	-0.750			
0.7092	45389.27	3.3480	3.3484	-0.6908	7.45	1.46	-0.750			
0.7113	45520.58	3.3450	3.3449	-0.6704	7.47	1.48	-0.750			
0.7132	45646.71	3.3420	3.3419	-0.6514	7.48	1.49	-0.750			
0.7152	45771.75	3.3390	3.3390	-0.6757	7.50	1.51	-0.750			
