Ah_balance (normalized)	Ah_balance (mAh)	Voltage - fit (V)	Voltage -  interpolate (V)	dQ/dV (1/V)	Temperature (°C)	Temperature - diff (°C)	Current (C)	R_DC 0ms (mOhm)	R_DC 50ms (mOhm)	R_DC 50 ms PEC (mOhm)
0.0706	4520.59	4.0000	3.9996	-0.0770	6.00	0.01	-0.750			
0.0709	4538.29	3.9970	3.9969	-0.1074	6.00	0.01	-0.750			
0.0713	4562.29	3.9940	3.9938	-0.1370	5.99	0.00	-0.750			
0.0717	4591.91	3.9910	3.9910	-0.1636	5.99	0.00	-0.750			
0.0723	4625.86	3.9880	3.9879	-0.1902	5.99	0.00	-0.750			
0.0729	4665.90	3.9850	3.9851	-0.2165	5.99	-0.00	-0.750			
0.0736	4709.85	3.9820	3.9819	-0.2396	5.99	-0.00	-0.750			
0.0743	4758.04	3.9790	3.9790	-0.2632	5.98	-0.01	-0.750			
0.0752	4810.57	3.9760	3.9761	-0.2882	5.98	-0.01	-0.750			
0.0761	4868.44	3.9730	3.9730	-0.3122	5.98	-0.01	-0.750			
0.0770	4930.43	3.9700	3.9700	-0.3384	5.98	-0.01	-0.750			
0.0781	4997.68	3.9670	3.9670	-0.3636	5.97	-0.02	-0.750			
0.0792	5069.89	3.9640	3.9640	-0.3909	5.97	-0.02	-0.750			
0.0804	5147.68	3.9610	3.9610	-0.4191	5.97	-0.02	-0.750			
0.0817	5230.74	3.9580	3.9580	-0.4461	5.96	-0.03	-0.750			
0.0831	5318.82	3.9550	3.9550	-0.4731	5.96	-0.03	-0.750			
0.0846	5413.06	3.9520	3.9520	-0.4983	5.95	-0.04	-0.750			
0.0861	5511.55	3.9490	3.9490	-0.5214	5.95	-0.04	-0.750			
0.0877	5614.38	3.9460	3.9460	-0.5448	5.95	-0.04	-0.750			
0.0894	5720.75	3.9430	3.9430	-0.5678	5.94	-0.05	-0.750			
0.0911	5831.83	3.9400	3.9400	-0.5901	5.94	-0.05	-0.750			
0.0929	5947.87	3.9370	3.9370	-0.6128	5.94	-0.05	-0.750			
0.0948	6067.92	3.9340	3.9340	-0.6326	5.93	-0.06	-0.750			
0.0968	6192.59	3.9310	3.9310	-0.6480	5.93	-0.06	-0.750			
0.0987	6319.73	3.9280	3.9280	-0.6629	5.93	-0.06	-0.750			
0.1008	6448.42	3.9250	3.9250	-0.6747	5.93	-0.06	-0.750			
0.1028	6578.43	3.9220	3.9220	-0.6880	5.93	-0.06	-0.750			
0.1049	6711.67	3.9190	3.9190	-0.6993	5.93	-0.06	-0.750			
0.1070	6846.70	3.9160	3.9161	-0.7138	5.93	-0.06	-0.750			
0.1092	6985.96	3.9130	3.9130	-0.7233	5.93	-0.06	-0.750			
0.1114	7126.82	3.9100	3.9100	-0.7308	5.93	-0.06	-0.750			
0.1136	7268.42	3.9070	3.9070	-0.7386	5.93	-0.06	-0.750			
0.1158	7410.66	3.9040	3.9039	-0.7463	5.93	-0.06	-0.750			
0.1181	7555.23	3.9010	3.9010	-0.7488	5.93	-0.06	-0.750			
0.1203	7699.85	3.8980	3.8980	-0.7548	5.93	-0.06	-0.750			
0.1226	7844.84	3.8950	3.8952	-0.7590	5.93	-0.06	-0.750			
0.1249	7991.75	3.8920	3.8920	-0.7663	5.93	-0.06	-0.750			
0.1272	8138.50	3.8890	3.8889	-0.7713	5.94	-0.05	-0.750			
0.1295	8286.42	3.8860	3.8860	-0.7745	5.94	-0.05	-0.750			
0.1318	8437.00	3.8830	3.8830	-0.7800	5.94	-0.05	-0.750			
0.1342	8587.04	3.8800	3.8800	-0.7830	5.95	-0.04	-0.750			
0.1365	8737.14	3.8770	3.8770	-0.7857	5.95	-0.04	-0.750			
0.1389	8887.20	3.8740	3.8740	-0.7933	5.96	-0.03	-0.750			
0.1413	9040.79	3.8710	3.8710	-0.7961	5.96	-0.03	-0.750			
0.1437	9194.73	3.8680	3.8680	-0.7968	5.96	-0.03	-0.750			
0.1461	9348.77	3.8650	3.8650	-0.7975	5.97	-0.02	-0.750			
0.1485	9503.35	3.8620	3.8621	-0.7983	5.97	-0.02	-0.750			
0.1508	9654.31	3.8590	3.8590	-0.8004	5.98	-0.01	-0.750			
0.1532	9806.29	3.8560	3.8559	-0.8003	5.98	-0.01	-0.750			
0.1556	9959.42	3.8530	3.8530	-0.8016	5.98	-0.01	-0.750			
0.1580	10115.09	3.8500	3.8499	-0.8122	5.99	-0.00	-0.750			
0.1605	10273.80	3.8470	3.8471	-0.8150	5.99	0.00	-0.750			
0.1630	10430.43	3.8440	3.8440	-0.8138	5.99	0.00	-0.750			
0.1654	10586.23	3.8410	3.8410	-0.8192	6.00	0.01	-0.750			
0.1679	10743.50	3.8380	3.8379	-0.8174	6.00	0.01	-0.750			
0.1703	10900.41	3.8350	3.8349	-0.8197	6.01	0.02	-0.750			
0.1728	11058.08	3.8320	3.8322	-0.8193	6.01	0.02	-0.750			
0.1752	11215.14	3.8290	3.8290	-0.8209	6.02	0.03	-0.750			
0.1777	11373.73	3.8260	3.8260	-0.8274	6.02	0.03	-0.750			
0.1802	11531.86	3.8230	3.8230	-0.8265	6.03	0.04	-0.750			
0.1827	11690.70	3.8200	3.8199	-0.8318	6.03	0.04	-0.750			
0.1852	11851.33	3.8170	3.8172	-0.8341	6.04	0.05	-0.750			
0.1877	12011.51	3.8140	3.8140	-0.8365	6.05	0.06	-0.750			
0.1902	12172.76	3.8110	3.8110	-0.8438	6.05	0.06	-0.750			
0.1927	12335.49	3.8080	3.8079	-0.8400	6.06	0.07	-0.750			
0.1953	12498.83	3.8050	3.8050	-0.8403	6.06	0.07	-0.750			
0.1978	12659.26	3.8020	3.8023	-0.8390	6.07	0.08	-0.750			
0.2003	12820.02	3.7990	3.7990	-0.8364	6.08	0.09	-0.750			
0.2028	12979.92	3.7960	3.7959	-0.8408	6.09	0.10	-0.750			
0.2053	13139.72	3.7930	3.7930	-0.8350	6.09	0.10	-0.750			
0.2078	13301.70	3.7900	3.7900	-0.8424	6.10	0.11	-0.750			
0.2104	13464.06	3.7870	3.7872	-0.8433	6.11	0.12	-0.750			
0.2129	13627.34	3.7840	3.7840	-0.8418	6.11	0.12	-0.750			
0.2154	13787.04	3.7810	3.7809	-0.8402	6.12	0.13	-0.750			
0.2179	13947.54	3.7780	3.7780	-0.8390	6.12	0.13	-0.750			
0.2204	14108.43	3.7750	3.7750	-0.8432	6.13	0.14	-0.750			
0.2230	14270.80	3.7720	3.7720	-0.8472	6.13	0.14	-0.750			
0.2255	14432.23	3.7690	3.7691	-0.8519	6.14	0.15	-0.750			
0.2281	14597.52	3.7660	3.7659	-0.8551	6.15	0.16	-0.750			
0.2307	14763.08	3.7630	3.7630	-0.8589	6.16	0.17	-0.750			
0.2333	14928.44	3.7600	3.7600	-0.8575	6.16	0.17	-0.750			
0.2358	15094.00	3.7570	3.7571	-0.8555	6.17	0.18	-0.750			
0.2384	15257.61	3.7540	3.7540	-0.8548	6.18	0.19	-0.750			
0.2410	15421.35	3.7510	3.7510	-0.8534	6.19	0.20	-0.750			
0.2435	15583.53	3.7480	3.7480	-0.8504	6.20	0.21	-0.750			
0.2461	15747.58	3.7450	3.7450	-0.8570	6.20	0.21	-0.750			
0.2486	15912.23	3.7420	3.7420	-0.8576	6.21	0.22	-0.750			
0.2512	16077.09	3.7390	3.7390	-0.8628	6.22	0.23	-0.750			
0.2538	16243.95	3.7360	3.7360	-0.8626	6.22	0.23	-0.750			
0.2564	16408.99	3.7330	3.7330	-0.8636	6.22	0.23	-0.750			
0.2590	16574.86	3.7300	3.7299	-0.8675	6.23	0.24	-0.750			
0.2616	16740.85	3.7270	3.7269	-0.8688	6.23	0.24	-0.750			
0.2642	16907.97	3.7240	3.7240	-0.8714	6.24	0.25	-0.750			
0.2668	17076.94	3.7210	3.7210	-0.8733	6.25	0.26	-0.750			
0.2695	17245.09	3.7180	3.7180	-0.8736	6.26	0.27	-0.750			
0.2721	17413.84	3.7150	3.7149	-0.8754	6.27	0.28	-0.750			
0.2747	17579.46	3.7120	3.7120	-0.8820	6.27	0.28	-0.750			
0.2773	17748.88	3.7090	3.7090	-0.8877	6.28	0.29	-0.750			
0.2800	17919.71	3.7060	3.7059	-0.8928	6.28	0.29	-0.750			
0.2827	18091.46	3.7030	3.7030	-0.8976	6.29	0.30	-0.750			
0.2854	18267.57	3.7000	3.7002	-0.9095	6.29	0.30	-0.750			
0.2882	18441.83	3.6970	3.6970	-0.9163	6.30	0.31	-0.750			
0.2909	18618.40	3.6940	3.6939	-0.9184	6.31	0.32	-0.750			
0.2937	18794.14	3.6910	3.6910	-0.9207	6.32	0.33	-0.750			
0.2964	18971.88	3.6880	3.6880	-0.9300	6.33	0.34	-0.750			
0.2992	19150.72	3.6850	3.6850	-0.9371	6.33	0.34	-0.750			
0.3021	19331.87	3.6820	3.6820	-0.9457	6.34	0.35	-0.750			
0.3049	19513.51	3.6790	3.6789	-0.9527	6.34	0.35	-0.750			
0.3078	19696.36	3.6760	3.6760	-0.9622	6.35	0.36	-0.750			
0.3107	19883.93	3.6730	3.6731	-0.9736	6.35	0.36	-0.750			
0.3136	20072.32	3.6700	3.6699	-0.9852	6.36	0.37	-0.750			
0.3166	20261.60	3.6670	3.6670	-0.9948	6.37	0.38	-0.750			
0.3196	20452.67	3.6640	3.6640	-1.0060	6.38	0.39	-0.750			
0.3226	20647.55	3.6610	3.6612	-1.0215	6.39	0.40	-0.750			
0.3257	20843.97	3.6580	3.6579	-1.0333	6.39	0.40	-0.750			
0.3288	21042.27	3.6550	3.6550	-1.0464	6.40	0.41	-0.750			
0.3320	21244.81	3.6520	3.6520	-1.0624	6.40	0.41	-0.750			
0.3352	21452.60	3.6490	3.6491	-1.0788	6.41	0.42	-0.750			
0.3385	21661.01	3.6460	3.6460	-1.0834	6.42	0.43	-0.750			
0.3417	21870.03	3.6430	3.6431	-1.0918	6.42	0.43	-0.750			
0.3450	22079.05	3.6400	3.6400	-1.1049	6.43	0.44	-0.750			
0.3483	22289.36	3.6370	3.6370	-1.1179	6.43	0.44	-0.750			
0.3516	22503.65	3.6340	3.6339	-1.1417	6.44	0.45	-0.750			
0.3551	22723.78	3.6310	3.6310	-1.1660	6.44	0.45	-0.750			
0.3586	22950.96	3.6280	3.6278	-1.1945	6.45	0.46	-0.750			
0.3623	23185.92	3.6250	3.6250	-1.2192	6.45	0.46	-0.750			
0.3660	23422.91	3.6220	3.6220	-1.2353	6.46	0.47	-0.750			
0.3697	23661.12	3.6190	3.6189	-1.2529	6.47	0.48	-0.750			
0.3735	23902.90	3.6160	3.6161	-1.2671	6.47	0.48	-0.750			
0.3773	24150.01	3.6130	3.6130	-1.2851	6.47	0.48	-0.750			
0.3812	24397.54	3.6100	3.6100	-1.3062	6.47	0.48	-0.750			
0.3852	24650.09	3.6070	3.6072	-1.3300	6.47	0.48	-0.750			
0.3892	24909.64	3.6040	3.6038	-1.3479	6.47	0.48	-0.750			
0.3933	25169.92	3.6010	3.6010	-1.3601	6.48	0.49	-0.750	0.484	1.154	
0.3974	25432.38	3.5980	3.5983	-1.3780	6.48	0.49	-0.750			
0.4016	25700.65	3.5950	3.5949	-1.4020	6.48	0.49	-0.750			
0.4058	25969.16	3.5920	3.5919	-1.4163	6.49	0.50	-0.750			
0.4100	26240.42	3.5890	3.5892	-1.4354	6.49	0.50	-0.750			
0.4144	26520.74	3.5860	3.5859	-1.4634	6.50	0.51	-0.750			
0.4188	26800.69	3.5830	3.5830	-1.4951	6.50	0.51	-0.750			
0.4233	27090.26	3.5800	3.5802	-1.5140	6.51	0.52	-0.750			
0.4280	27388.97	3.5770	3.5769	-1.5309	6.52	0.53	-0.750			
0.4325	27682.71	3.5740	3.5740	-1.5460	6.53	0.54	-0.750			
0.4372	27978.77	3.5710	3.5708	-1.5589	6.53	0.54	-0.750			
0.4419	28282.01	3.5680	3.5680	-1.5902	6.53	0.54	-0.750			
0.4467	28587.53	3.5650	3.5649	-1.6082	6.53	0.54	-0.750			
0.4515	28898.75	3.5620	3.5619	-1.6197	6.54	0.55	-0.750			
0.4565	29215.14	3.5590	3.5591	-1.6407	6.54	0.55	-0.750			
0.4615	29533.87	3.5560	3.5561	-1.6705	6.55	0.56	-0.750			
0.4664	29851.55	3.5530	3.5530	-1.6778	6.55	0.56	-0.750			
0.4715	30176.54	3.5500	3.5501	-1.6900	6.55	0.56	-0.750			
0.4766	30501.75	3.5470	3.5469	-1.7095	6.56	0.57	-0.750			
0.4818	30836.45	3.5440	3.5438	-1.7382	6.56	0.57	-0.750			
0.4871	31173.67	3.5410	3.5410	-1.7415	6.57	0.58	-0.750			
0.4923	31509.84	3.5380	3.5381	-1.7639	6.57	0.58	-0.750			
0.4977	31850.36	3.5350	3.5350	-1.7644	6.57	0.58	-0.750			
0.5030	32190.59	3.5320	3.5321	-1.7811	6.58	0.59	-0.750			
0.5084	32535.82	3.5290	3.5289	-1.7950	6.59	0.60	-0.750			
0.5137	32876.91	3.5260	3.5261	-1.8031	6.59	0.60	-0.750			
0.5192	33229.33	3.5230	3.5231	-1.8023	6.59	0.60	-0.750			
0.5246	33577.10	3.5200	3.5200	-1.8166	6.59	0.60	-0.750			
0.5300	33922.03	3.5170	3.5171	-1.8036	6.60	0.61	-0.750			
0.5355	34274.18	3.5140	3.5141	-1.8094	6.61	0.62	-0.750			
0.5409	34619.18	3.5110	3.5109	-1.8097	6.62	0.63	-0.750			
0.5464	34969.50	3.5080	3.5080	-1.8071	6.63	0.64	-0.750			
0.5518	35316.51	3.5050	3.5050	-1.7947	6.63	0.64	-0.750			
0.5573	35665.57	3.5020	3.5022	-1.7878	6.63	0.64	-0.750			
0.5626	36005.20	3.4990	3.4991	-1.7653	6.64	0.65	-0.750			
0.5679	36342.61	3.4960	3.4959	-1.7621	6.65	0.66	-0.750			
0.5731	36680.83	3.4930	3.4932	-1.7432	6.67	0.68	-0.750			
0.5783	37011.66	3.4900	3.4901	-1.7322	6.67	0.68	-0.750			
0.5835	37343.96	3.4870	3.4871	-1.7189	6.67	0.68	-0.750			
0.5887	37675.46	3.4840	3.4840	-1.7071	6.68	0.69	-0.750			
0.5938	38004.85	3.4810	3.4810	-1.6962	6.69	0.70	-0.750			
0.5988	38326.10	3.4780	3.4781	-1.6812	6.70	0.71	-0.750			
0.6038	38646.21	3.4750	3.4752	-1.6598	6.70	0.71	-0.750			
0.6089	38967.10	3.4720	3.4718	-1.6391	6.71	0.72	-0.750			
0.6137	39277.98	3.4690	3.4689	-1.5978	6.72	0.73	-0.750			
0.6185	39584.06	3.4660	3.4658	-1.5669	6.74	0.75	-0.750			
0.6232	39883.68	3.4630	3.4631	-1.5416	6.75	0.76	-0.750			
0.6277	40171.37	3.4600	3.4599	-1.5023	6.76	0.77	-0.750			
0.6321	40454.39	3.4570	3.4570	-1.4801	6.77	0.78	-0.750			
0.6365	40736.99	3.4540	3.4540	-1.4526	6.78	0.79	-0.750			
0.6409	41018.91	3.4510	3.4509	-1.4419	6.80	0.81	-0.750			
0.6452	41292.64	3.4480	3.4480	-1.4155	6.82	0.83	-0.750			
0.6494	41562.63	3.4450	3.4450	-1.3785	6.83	0.84	-0.750			
0.6536	41828.61	3.4420	3.4419	-1.3528	6.84	0.85	-0.750			
0.6575	42081.85	3.4390	3.4390	-1.3129	6.85	0.86	-0.750			
0.6614	42328.88	3.4360	3.4361	-1.2778	6.86	0.87	-0.750			
0.6652	42573.73	3.4330	3.4329	-1.2488	6.88	0.89	-0.750			
0.6689	42808.55	3.4300	3.4300	-1.2158	6.89	0.90	-0.750			
0.6725	43038.72	3.4270	3.4270	-1.1850	6.91	0.92	-0.750			
0.6760	43266.20	3.4240	3.4240	-1.1627	6.92	0.93	-0.750			
0.6795	43487.59	3.4210	3.4210	-1.1301	6.93	0.94	-0.750			
0.6828	43700.81	3.4180	3.4179	-1.0986	6.94	0.95	-0.750			
0.6861	43908.00	3.4150	3.4151	-1.0681	6.95	0.96	-0.750			
0.6892	44111.04	3.4120	3.4119	-1.0373	6.97	0.98	-0.750			
0.6923	44306.34	3.4090	3.4090	-1.0015	6.98	0.99	-0.750			
0.6952	44492.72	3.4060	3.4060	-0.9691	7.00	1.01	-0.750			
0.6981	44678.65	3.4030	3.4031	-0.9501	7.01	1.02	-0.750			
0.7009	44857.85	3.4000	3.3999	-0.9238	7.03	1.04	-0.750			
0.7036	45032.23	3.3970	3.3969	-0.8955	7.04	1.05	-0.750			
0.7063	45201.88	3.3940	3.3941	-0.8717	7.05	1.06	-0.750			
0.7089	45368.14	3.3910	3.3909	-0.8486	7.06	1.07	-0.750			
0.7114	45529.09	3.3880	3.3880	-0.8200	7.08	1.09	-0.750			
0.7138	45682.55	3.3850	3.3850	-0.7968	7.09	1.10	-0.750			
0.7161	45833.59	3.3820	3.3820	-0.7772	7.10	1.11	-0.750			
