Ah_balance (normalized)	Ah_balance (mAh)	Voltage - fit (V)	Voltage -  interpolate (V)	dQ/dV (1/V)	Temperature (°C)	Temperature - diff (°C)	Current (C)	R_DC 0ms (mOhm)	R_DC 50ms (mOhm)	R_DC 50 ms PEC (mOhm)
0.1842	11791.29	4.0790	4.0791	0.7851	7.13	1.14	0.750			
0.1866	11941.29	4.0760	4.0760	0.7845	7.13	1.14	0.750			
0.1889	12092.63	4.0730	4.0730	0.7857	7.12	1.13	0.750			
0.1913	12243.61	4.0700	4.0700	0.7861	7.12	1.13	0.750			
0.1936	12393.07	4.0670	4.0670	0.7883	7.11	1.12	0.750			
0.1960	12545.48	4.0640	4.0638	0.7944	7.11	1.12	0.750			
0.1984	12698.44	4.0610	4.0610	0.7967	7.11	1.12	0.750			
0.2008	12853.99	4.0580	4.0579	0.7886	7.10	1.11	0.750			
0.2032	13007.95	4.0550	4.0550	0.7853	7.10	1.11	0.750			
0.2056	13159.62	4.0520	4.0521	0.7735	7.09	1.10	0.750			
0.2079	13305.48	4.0490	4.0489	0.7707	7.09	1.10	0.750			
0.2101	13447.48	4.0460	4.0464	0.7877	7.09	1.10	0.750			
0.2124	13595.11	4.0430	4.0436	0.7961	7.08	1.09	0.750			
0.2149	13751.14	4.0400	4.0390	0.8082	7.07	1.08	0.750			
0.2174	13912.41	4.0370	4.0375	0.8234	7.06	1.07	0.750			
0.2199	14071.22	4.0340	4.0342	0.8230	7.05	1.06	0.750			
0.2225	14236.89	4.0310	4.0310	0.8309	7.05	1.06	0.750			
0.2250	14399.25	4.0280	4.0279	0.7956	7.04	1.05	0.750			
0.2273	14546.38	4.0250	4.0250	0.7653	7.04	1.05	0.750			
0.2296	14691.45	4.0220	4.0223	0.7561	7.04	1.05	0.750			
0.2317	14828.43	4.0190	4.0193	0.7586	7.03	1.04	0.750			
0.2339	14968.31	4.0160	4.0157	0.7604	7.03	1.04	0.750			
0.2361	15112.50	4.0130	4.0129	0.7815	7.03	1.04	0.750			
0.2385	15265.63	4.0100	4.0101	0.8003	7.02	1.03	0.750			
0.2411	15429.32	4.0070	4.0070	0.8271	7.02	1.03	0.750			
0.2436	15590.64	4.0040	4.0041	0.8360	7.01	1.02	0.750			
0.2461	15750.72	4.0010	4.0009	0.8389	7.01	1.02	0.750			
0.2486	15910.23	3.9980	3.9980	0.8481	7.00	1.01	0.750			
0.2512	16076.59	3.9950	3.9950	0.8427	6.99	1.00	0.750			
0.2537	16238.96	3.9920	3.9920	0.8427	6.99	1.00	0.750			
0.2562	16399.62	3.9890	3.9891	0.8515	6.98	0.99	0.750			
0.2588	16563.04	3.9860	3.9857	0.8549	6.97	0.98	0.750			
0.2614	16726.65	3.9830	3.9829	0.8571	6.97	0.98	0.750			
0.2639	16891.76	3.9800	3.9801	0.8643	6.96	0.97	0.750			
0.2665	17058.27	3.9770	3.9771	0.8735	6.96	0.97	0.750			
0.2692	17231.25	3.9740	3.9740	0.8841	6.95	0.96	0.750			
0.2719	17399.27	3.9710	3.9709	0.8769	6.95	0.96	0.750			
0.2745	17566.24	3.9680	3.9680	0.8770	6.94	0.95	0.750			
0.2771	17735.05	3.9650	3.9651	0.8856	6.94	0.95	0.750			
0.2798	17905.01	3.9620	3.9619	0.8899	6.94	0.95	0.750			
0.2824	18075.49	3.9590	3.9589	0.8967	6.93	0.94	0.750			
0.2851	18248.27	3.9560	3.9561	0.9038	6.92	0.93	0.750			
0.2879	18425.38	3.9530	3.9530	0.9017	6.92	0.93	0.750			
0.2906	18598.27	3.9500	3.9501	0.9042	6.91	0.92	0.750			
0.2933	18768.74	3.9470	3.9471	0.9070	6.90	0.91	0.750			
0.2960	18941.55	3.9440	3.9436	0.9198	6.89	0.90	0.750			
0.2987	19119.23	3.9410	3.9409	0.9231	6.89	0.90	0.750			
0.3015	19297.63	3.9380	3.9380	0.9305	6.88	0.89	0.750			
0.3044	19481.02	3.9350	3.9352	0.9431	6.88	0.89	0.750			
0.3072	19662.11	3.9320	3.9321	0.9461	6.87	0.88	0.750			
0.3101	19845.12	3.9290	3.9290	0.9541	6.87	0.88	0.750			
0.3129	20025.89	3.9260	3.9260	0.9548	6.86	0.87	0.750			
0.3158	20210.73	3.9230	3.9230	0.9628	6.86	0.87	0.750			
0.3188	20400.32	3.9200	3.9201	0.9740	6.85	0.86	0.750			
0.3217	20586.45	3.9170	3.9169	0.9782	6.85	0.86	0.750			
0.3246	20773.41	3.9140	3.9140	0.9799	6.84	0.85	0.750			
0.3275	20959.35	3.9110	3.9110	0.9862	6.83	0.84	0.750			
0.3305	21149.58	3.9080	3.9080	0.9991	6.82	0.83	0.750			
0.3335	21343.52	3.9050	3.9043	1.0090	6.81	0.82	0.750			
0.3366	21539.58	3.9020	3.9021	1.0190	6.81	0.82	0.750			
0.3396	21734.94	3.8990	3.8991	1.0319	6.80	0.81	0.750			
0.3427	21933.24	3.8960	3.8960	1.0464	6.80	0.81	0.750			
0.3459	22138.25	3.8930	3.8928	1.0566	6.79	0.80	0.750			
0.3491	22339.43	3.8900	3.8900	1.0662	6.78	0.79	0.750			
0.3523	22545.98	3.8870	3.8870	1.0803	6.77	0.78	0.750			
0.3556	22757.38	3.8840	3.8841	1.0917	6.76	0.77	0.750			
0.3589	22970.62	3.8810	3.8808	1.0894	6.75	0.76	0.750			
0.3621	23176.81	3.8780	3.8780	1.1033	6.74	0.75	0.750			
0.3654	23383.15	3.8750	3.8752	1.1283	6.73	0.74	0.750			
0.3688	23604.42	3.8720	3.8721	1.1538	6.72	0.73	0.750			
0.3723	23828.01	3.8690	3.8691	1.1637	6.71	0.72	0.750			
0.3759	24054.96	3.8660	3.8661	1.1860	6.70	0.71	0.750			
0.3795	24287.21	3.8630	3.8634	1.2079	6.70	0.71	0.750			
0.3832	24522.34	3.8600	3.8596	1.2122	6.69	0.70	0.750			
0.3868	24753.17	3.8570	3.8571	1.2148	6.68	0.69	0.750			
0.3904	24986.26	3.8540	3.8541	1.2266	6.67	0.68	0.750			
0.3942	25228.62	3.8510	3.8510	1.2430	6.66	0.67	0.750			
0.3979	25468.00	3.8480	3.8479	1.2631	6.65	0.66	0.750			
0.4015	25698.48	3.8450	3.8452	1.3002	6.64	0.65	0.750			
0.4055	25953.77	3.8420	3.8421	1.3419	6.63	0.64	0.750			
0.4097	26219.64	3.8390	3.8390	1.3837	6.62	0.63	0.750	0.382	0.919	
0.4139	26488.24	3.8360	3.8362	1.4198	6.61	0.62	0.750			
0.4183	26770.45	3.8330	3.8332	1.4439	6.60	0.61	0.750			
0.4227	27054.31	3.8300	3.8300	1.4745	6.59	0.60	0.750			
0.4270	27331.19	3.8270	3.8270	1.4566	6.58	0.59	0.750			
0.4314	27612.16	3.8240	3.8240	1.4547	6.57	0.58	0.750			
0.4359	27899.19	3.8210	3.8212	1.4824	6.55	0.56	0.750			
0.4403	28176.43	3.8180	3.8178	1.5431	6.53	0.54	0.750			
0.4449	28473.75	3.8150	3.8149	1.5751	6.51	0.52	0.750			
0.4497	28782.50	3.8120	3.8117	1.5925	6.50	0.51	0.750			
0.4547	29103.10	3.8090	3.8093	1.6527	6.48	0.49	0.750			
0.4597	29418.51	3.8060	3.8058	1.6773	6.47	0.48	0.750			
0.4646	29736.48	3.8030	3.8029	1.6843	6.46	0.47	0.750			
0.4695	30051.16	3.8000	3.8002	1.7022	6.44	0.45	0.750			
0.4748	30386.76	3.7970	3.7972	1.7599	6.42	0.43	0.750			
0.4802	30732.76	3.7940	3.7941	1.8009	6.40	0.41	0.750			
0.4857	31084.39	3.7910	3.7911	1.8152	6.38	0.39	0.750			
0.4910	31426.00	3.7880	3.7883	1.8400	6.37	0.38	0.750			
0.4966	31785.18	3.7850	3.7853	1.8664	6.36	0.37	0.750			
0.5024	32151.13	3.7820	3.7824	1.9081	6.34	0.35	0.750			
0.5082	32521.82	3.7790	3.7789	1.9172	6.33	0.34	0.750			
0.5138	32884.69	3.7760	3.7761	1.9190	6.30	0.31	0.750			
0.5195	33250.54	3.7730	3.7731	1.9740	6.28	0.29	0.750			
0.5257	33644.59	3.7700	3.7700	1.9872	6.26	0.27	0.750			
0.5317	34030.00	3.7670	3.7671	2.0401	6.25	0.26	0.750			
0.5380	34429.85	3.7640	3.7642	2.0839	6.23	0.24	0.750			
0.5442	34830.33	3.7610	3.7611	2.0763	6.20	0.21	0.750			
0.5505	35233.29	3.7580	3.7580	2.0829	6.18	0.19	0.750			
0.5568	35636.81	3.7550	3.7550	2.1393	6.17	0.18	0.750			
0.5631	36039.05	3.7520	3.7523	2.1861	6.16	0.17	0.750			
0.5697	36461.46	3.7490	3.7490	2.1683	6.13	0.14	0.750			
0.5762	36878.01	3.7460	3.7462	2.1657	6.11	0.12	0.750			
0.5830	37308.85	3.7430	3.7429	2.2124	6.09	0.10	0.750			
0.5895	37726.90	3.7400	3.7401	2.3351	6.08	0.09	0.750			
0.5967	38187.55	3.7370	3.7374	2.6170	6.07	0.08	0.750			
0.6044	38679.05	3.7340	3.7342	2.5299	6.04	0.05	0.750			
0.6121	39175.96	3.7310	3.7317	2.4720	6.02	0.03	0.750			
0.6194	39639.85	3.7280	3.7280	2.4034	6.00	0.01	0.750			
0.6269	40124.57	3.7250	3.7250	2.5243	5.99	-0.00	0.750			
0.6342	40590.80	3.7220	3.7220	2.4352	5.97	-0.02	0.750			
0.6417	41071.65	3.7190	3.7190	2.3817	5.96	-0.03	0.750			
0.6488	41522.59	3.7160	3.7162	2.2738	5.96	-0.03	0.750			
0.6554	41948.54	3.7130	3.7131	2.1511	5.95	-0.04	0.750			
0.6617	42349.67	3.7100	3.7102	1.9281	5.94	-0.05	0.750			
0.6672	42703.12	3.7070	3.7070	1.7578	5.94	-0.05	0.750			
0.6719	43001.53	3.7040	3.7040	1.5143	5.93	-0.06	0.750			
0.6761	43269.17	3.7010	3.7009	1.3440	5.93	-0.06	0.750			
0.6796	43496.96	3.6980	3.6981	1.2103	5.93	-0.06	0.750			
0.6830	43711.64	3.6950	3.6949	1.1048	5.93	-0.06	0.750			
0.6862	43914.39	3.6920	3.6919	1.0158	5.93	-0.06	0.750			
0.6890	44099.16	3.6890	3.6891	0.9576	5.94	-0.05	0.750			
0.6918	44272.48	3.6860	3.6861	0.9112	5.94	-0.05	0.750			
0.6944	44442.24	3.6830	3.6829	0.8726	5.95	-0.04	0.750			
0.6969	44602.85	3.6800	3.6801	0.8338	5.95	-0.04	0.750			
0.6994	44758.96	3.6770	3.6771	0.8030	5.95	-0.04	0.750			
0.7018	44913.87	3.6740	3.6740	0.7730	5.95	-0.04	0.750			
0.7041	45061.24	3.6710	3.6709	0.7369	5.96	-0.03	0.750			
0.7062	45196.90	3.6680	3.6681	0.6960	5.96	-0.03	0.750			
0.7082	45327.09	3.6650	3.6649	0.6624	5.96	-0.03	0.750			
0.7102	45450.93	3.6620	3.6620	0.6263	5.96	-0.03	0.750			
0.7120	45568.53	3.6590	3.6589	0.5873	5.97	-0.02	0.750			
0.7137	45678.38	3.6560	3.6560	0.5486	5.97	-0.02	0.750			
0.7153	45780.09	3.6530	3.6532	0.5092	5.98	-0.01	0.750			
0.7168	45874.36	3.6500	3.6499	0.4684	5.98	-0.01	0.750			
0.7181	45958.68	3.6470	3.6470	0.4270	5.98	-0.01	0.750			
0.7193	46036.96	3.6440	3.6440	0.3908	5.99	-0.00	0.750			
0.7204	46107.87	3.6410	3.6411	0.3552	5.99	-0.00	0.750			
0.7215	46172.91	3.6380	3.6380	0.3209	5.99	0.00	0.750			
0.7224	46230.90	3.6350	3.6350	0.2869	5.99	0.00	0.750			
0.7232	46283.87	3.6320	3.6319	0.2495	6.00	0.01	0.750			
0.7239	46328.64	3.6290	3.6289	0.2134	6.00	0.01	0.750			
0.7245	46366.83	3.6260	3.6260	0.1764	6.00	0.01	0.750			
0.7250	46398.06	3.6230	3.6232	0.1384	6.00	0.01	0.750			
0.7253	46421.60	3.6200	3.6201	0.0971	6.00	0.01	0.750			
0.7256	46437.38	3.6170	3.6172	0.0511	6.00	0.01	0.750			
0.7257	46442.69	3.6140	3.6153	0.0043	6.00	0.01	0.750			
