Ah_balance (normalized)	Ah_balance (mAh)	Voltage - fit (V)	Voltage -  interpolate (V)	dQ/dV (1/V)	Temperature (°C)	Temperature - diff (°C)	Current (C)	R_DC 0ms (mOhm)	R_DC 50ms (mOhm)	R_DC 50 ms PEC (mOhm)
0.1606	10278.54	4.0720	4.0721	0.7988	7.31	1.32	0.750			
0.1630	10435.19	4.0690	4.0689	0.8092	7.31	1.32	0.750			
0.1655	10589.40	4.0660	4.0660	0.8070	7.30	1.31	0.750			
0.1679	10743.94	4.0630	4.0630	0.8074	7.30	1.31	0.750			
0.1703	10898.77	4.0600	4.0601	0.8090	7.29	1.30	0.750			
0.1727	11052.99	4.0570	4.0569	0.8125	7.29	1.30	0.750			
0.1751	11208.60	4.0540	4.0540	0.8207	7.29	1.30	0.750			
0.1775	11363.03	4.0510	4.0510	0.8327	7.28	1.29	0.750			
0.1801	11525.72	4.0480	4.0480	0.8524	7.28	1.29	0.750			
0.1827	11694.15	4.0450	4.0448	0.8575	7.27	1.28	0.750			
0.1853	11862.21	4.0420	4.0421	0.8687	7.27	1.28	0.750			
0.1880	12033.43	4.0390	4.0391	0.8619	7.27	1.28	0.750			
0.1906	12199.28	4.0360	4.0360	0.8577	7.27	1.28	0.750			
0.1932	12362.39	4.0330	4.0329	0.8488	7.27	1.28	0.750			
0.1956	12520.43	4.0300	4.0302	0.8389	7.27	1.28	0.750			
0.1981	12681.12	4.0270	4.0269	0.8379	7.27	1.28	0.750			
0.2007	12842.25	4.0240	4.0240	0.8375	7.26	1.27	0.750			
0.2031	13001.09	4.0210	4.0211	0.8401	7.26	1.27	0.750			
0.2057	13163.60	4.0180	4.0180	0.8489	7.26	1.27	0.750			
0.2082	13326.55	4.0150	4.0150	0.8532	7.25	1.26	0.750			
0.2108	13491.85	4.0120	4.0120	0.8550	7.25	1.26	0.750			
0.2134	13657.76	4.0090	4.0090	0.8576	7.24	1.25	0.750			
0.2160	13824.45	4.0060	4.0061	0.8612	7.24	1.25	0.750			
0.2186	13989.79	4.0030	4.0030	0.8588	7.24	1.25	0.750			
0.2211	14152.65	4.0000	4.0000	0.8560	7.23	1.24	0.750			
0.2237	14317.05	3.9970	3.9970	0.8605	7.23	1.24	0.750			
0.2263	14481.65	3.9940	3.9939	0.8618	7.22	1.23	0.750			
0.2289	14648.27	3.9910	3.9910	0.8691	7.22	1.23	0.750			
0.2315	14815.90	3.9880	3.9881	0.8753	7.22	1.23	0.750			
0.2341	14984.31	3.9850	3.9849	0.8791	7.21	1.22	0.750			
0.2368	15154.35	3.9820	3.9820	0.8845	7.21	1.22	0.750			
0.2394	15324.19	3.9790	3.9790	0.8830	7.20	1.21	0.750			
0.2421	15493.63	3.9760	3.9761	0.8874	7.20	1.21	0.750			
0.2448	15664.60	3.9730	3.9730	0.8927	7.19	1.20	0.750			
0.2474	15835.20	3.9700	3.9697	0.8971	7.19	1.20	0.750			
0.2501	16009.43	3.9670	3.9670	0.8949	7.19	1.20	0.750			
0.2528	16179.65	3.9640	3.9640	0.9059	7.18	1.19	0.750			
0.2555	16354.68	3.9610	3.9611	0.9132	7.18	1.19	0.750			
0.2583	16531.17	3.9580	3.9580	0.9228	7.17	1.18	0.750			
0.2611	16708.84	3.9550	3.9549	0.9225	7.17	1.18	0.750			
0.2639	16887.37	3.9520	3.9521	0.9219	7.16	1.17	0.750			
0.2666	17063.76	3.9490	3.9491	0.9306	7.16	1.17	0.750			
0.2694	17243.98	3.9460	3.9460	0.9341	7.15	1.16	0.750			
0.2722	17421.09	3.9430	3.9428	0.9370	7.15	1.16	0.750			
0.2750	17602.89	3.9400	3.9400	0.9391	7.15	1.16	0.750			
0.2779	17782.63	3.9370	3.9371	0.9480	7.14	1.15	0.750			
0.2807	17967.57	3.9340	3.9341	0.9622	7.14	1.15	0.750			
0.2836	18151.43	3.9310	3.9310	0.9624	7.13	1.14	0.750			
0.2865	18337.20	3.9280	3.9280	0.9660	7.13	1.14	0.750			
0.2894	18523.98	3.9250	3.9250	0.9753	7.12	1.13	0.750			
0.2923	18710.06	3.9220	3.9221	0.9861	7.12	1.13	0.750			
0.2954	18902.74	3.9190	3.9190	0.9999	7.11	1.12	0.750			
0.2983	19094.36	3.9160	3.9160	1.0024	7.11	1.12	0.750			
0.3014	19287.72	3.9130	3.9130	1.0148	7.10	1.11	0.750			
0.3044	19483.71	3.9100	3.9101	1.0293	7.10	1.11	0.750			
0.3075	19682.42	3.9070	3.9070	1.0423	7.09	1.10	0.750			
0.3107	19884.80	3.9040	3.9039	1.0467	7.09	1.10	0.750			
0.3138	20084.99	3.9010	3.9011	1.0596	7.08	1.09	0.750			
0.3170	20290.71	3.8980	3.8980	1.0727	7.07	1.08	0.750			
0.3203	20496.94	3.8950	3.8950	1.0878	7.06	1.07	0.750			
0.3236	20708.34	3.8920	3.8920	1.0896	7.05	1.06	0.750			
0.3268	20918.09	3.8890	3.8890	1.1043	7.04	1.05	0.750			
0.3302	21131.65	3.8860	3.8860	1.1150	7.04	1.05	0.750			
0.3335	21346.96	3.8830	3.8831	1.1294	7.03	1.04	0.750			
0.3369	21563.11	3.8800	3.8801	1.1385	7.03	1.04	0.750			
0.3403	21781.97	3.8770	3.8770	1.1585	7.02	1.03	0.750			
0.3438	22005.96	3.8740	3.8740	1.1733	7.01	1.02	0.750			
0.3475	22236.92	3.8710	3.8708	1.1841	7.00	1.01	0.750			
0.3510	22463.36	3.8680	3.8681	1.1987	6.99	1.00	0.750			
0.3546	22694.28	3.8650	3.8650	1.2171	6.98	0.99	0.750			
0.3583	22928.95	3.8620	3.8621	1.2340	6.97	0.98	0.750			
0.3620	23166.37	3.8590	3.8589	1.2536	6.97	0.98	0.750			
0.3658	23408.74	3.8560	3.8561	1.2738	6.96	0.97	0.750			
0.3697	23659.19	3.8530	3.8531	1.2967	6.95	0.96	0.750			
0.3736	23911.85	3.8500	3.8499	1.3235	6.95	0.96	0.750			
0.3775	24162.31	3.8470	3.8470	1.3434	6.94	0.95	0.750			
0.3816	24421.08	3.8440	3.8440	1.3695	6.93	0.94	0.750			
0.3857	24685.55	3.8410	3.8409	1.4138	6.92	0.93	0.750			
0.3900	24962.17	3.8380	3.8373	1.4423	6.91	0.92	0.750	0.406	1.015	
0.3945	25246.50	3.8350	3.8352	1.4731	6.90	0.91	0.750			
0.3989	25531.93	3.8320	3.8322	1.5016	6.89	0.90	0.750			
0.4034	25820.17	3.8290	3.8290	1.5349	6.88	0.89	0.750			
0.4081	26115.92	3.8260	3.8260	1.5512	6.86	0.87	0.750			
0.4128	26418.66	3.8230	3.8231	1.5705	6.85	0.86	0.750			
0.4175	26723.03	3.8200	3.8201	1.6222	6.84	0.85	0.750			
0.4225	27040.32	3.8170	3.8168	1.6477	6.83	0.84	0.750			
0.4275	27359.46	3.8140	3.8138	1.6902	6.81	0.82	0.750			
0.4326	27684.32	3.8110	3.8112	1.7183	6.80	0.81	0.750			
0.4379	28022.94	3.8080	3.8079	1.7557	6.78	0.79	0.750			
0.4431	28361.00	3.8050	3.8050	1.7958	6.76	0.77	0.750			
0.4486	28708.32	3.8020	3.8020	1.8295	6.75	0.76	0.750			
0.4542	29067.45	3.7990	3.7988	1.8989	6.73	0.74	0.750			
0.4600	29439.24	3.7960	3.7961	1.9148	6.71	0.72	0.750			
0.4657	29802.49	3.7930	3.7931	1.9638	6.69	0.70	0.750			
0.4716	30183.92	3.7900	3.7898	1.9984	6.67	0.68	0.750			
0.4778	30577.07	3.7870	3.7871	2.0500	6.65	0.66	0.750			
0.4840	30973.30	3.7840	3.7840	2.0955	6.63	0.64	0.750			
0.4904	31383.67	3.7810	3.7810	2.1123	6.61	0.62	0.750			
0.4967	31790.34	3.7780	3.7780	2.1425	6.58	0.59	0.750			
0.5032	32203.14	3.7750	3.7749	2.2098	6.56	0.57	0.750			
0.5099	32633.15	3.7720	3.7721	2.2565	6.53	0.54	0.750			
0.5167	33071.41	3.7690	3.7692	2.3083	6.50	0.51	0.750			
0.5237	33518.92	3.7660	3.7659	2.3186	6.47	0.48	0.750			
0.5307	33966.56	3.7630	3.7631	2.3337	6.45	0.46	0.750			
0.5379	34423.36	3.7600	3.7601	2.3958	6.42	0.43	0.750			
0.5451	34883.77	3.7570	3.7571	2.4568	6.38	0.39	0.750			
0.5525	35362.77	3.7540	3.7540	2.4533	6.35	0.36	0.750			
0.5599	35834.62	3.7510	3.7510	2.5318	6.31	0.32	0.750			
0.5676	36324.56	3.7480	3.7478	2.6073	6.28	0.29	0.750			
0.5756	36835.44	3.7450	3.7451	2.7500	6.25	0.26	0.750			
0.5841	37385.24	3.7420	3.7420	2.8385	6.20	0.21	0.750			
0.5927	37933.96	3.7390	3.7391	2.9329	6.16	0.17	0.750			
0.6015	38495.97	3.7360	3.7359	3.0691	6.12	0.13	0.750			
0.6110	39101.14	3.7330	3.7331	3.2962	6.09	0.10	0.750			
0.6213	39762.77	3.7300	3.7300	3.2985	6.04	0.05	0.750			
0.6313	40405.80	3.7270	3.7268	3.0513	6.00	0.01	0.750			
0.6396	40933.46	3.7240	3.7243	2.6280	5.98	-0.01	0.750			
0.6467	41390.99	3.7210	3.7207	2.3907	5.95	-0.04	0.750			
0.6534	41819.86	3.7180	3.7181	2.2244	5.94	-0.05	0.750			
0.6606	42280.43	3.7150	3.7149	2.1676	5.93	-0.06	0.750			
0.6665	42658.70	3.7120	3.7124	1.8733	5.93	-0.06	0.750			
0.6717	42987.36	3.7090	3.7089	1.6202	5.93	-0.06	0.750			
0.6760	43262.42	3.7060	3.7060	1.3980	5.93	-0.06	0.750			
0.6796	43495.13	3.7030	3.7030	1.2068	5.94	-0.05	0.750			
0.6828	43700.48	3.7000	3.7001	1.0852	5.94	-0.05	0.750			
0.6858	43892.72	3.6970	3.6969	0.9823	5.94	-0.05	0.750			
0.6886	44071.63	3.6940	3.6941	0.9119	5.95	-0.04	0.750			
0.6912	44237.90	3.6910	3.6910	0.8514	5.95	-0.04	0.750			
0.6937	44397.14	3.6880	3.6880	0.7958	5.95	-0.04	0.750			
0.6960	44544.18	3.6850	3.6851	0.7328	5.96	-0.03	0.750			
0.6981	44679.88	3.6820	3.6820	0.6769	5.96	-0.03	0.750			
0.7001	44804.48	3.6790	3.6791	0.6209	5.97	-0.02	0.750			
0.7018	44917.84	3.6760	3.6760	0.5670	5.97	-0.02	0.750			
0.7034	45020.24	3.6730	3.6730	0.5132	5.97	-0.02	0.750			
0.7049	45112.81	3.6700	3.6700	0.4612	5.98	-0.01	0.750			
0.7062	45196.29	3.6670	3.6670	0.4166	5.98	-0.01	0.750			
0.7074	45271.12	3.6640	3.6641	0.3736	5.98	-0.01	0.750			
0.7084	45338.08	3.6610	3.6609	0.3304	5.99	-0.00	0.750			
0.7093	45397.20	3.6580	3.6580	0.2902	5.99	-0.00	0.750			
0.7101	45448.61	3.6550	3.6549	0.2490	5.99	0.00	0.750			
0.7108	45493.15	3.6520	3.6521	0.2119	5.99	0.00	0.750			
0.7114	45530.95	3.6490	3.6490	0.1741	5.99	0.00	0.750			
0.7119	45560.39	3.6460	3.6461	0.1343	5.99	0.00	0.750			
0.7122	45582.81	3.6430	3.6433	0.0947	6.00	0.01	0.750			
0.7124	45596.24	3.6400	3.6411	0.0568	6.00	0.01	0.750			
0.7126	45603.55	3.6370	3.6387	0.0193	6.00	0.01	0.750			
