Ah_balance (normalized)	Ah_balance (mAh)	Voltage - fit (V)	Voltage -  interpolate (V)	dQ/dV (1/V)	Temperature (°C)	Temperature - diff (°C)	Current (C)	R_DC 0ms (mOhm)	R_DC 50ms (mOhm)	R_DC 50 ms PEC (mOhm)
0.1749	11196.06	4.0830	4.0830	0.7702	7.55	1.56	0.750			
0.1773	11345.60	4.0800	4.0800	0.7793	7.54	1.55	0.750			
0.1796	11495.65	4.0770	4.0769	0.7712	7.54	1.55	0.750			
0.1819	11641.31	4.0740	4.0741	0.7643	7.53	1.54	0.750			
0.1842	11786.13	4.0710	4.0711	0.7687	7.53	1.54	0.750			
0.1865	11932.95	4.0680	4.0676	0.7720	7.52	1.53	0.750			
0.1888	12081.70	4.0650	4.0649	0.7756	7.51	1.52	0.750			
0.1911	12231.94	4.0620	4.0622	0.7687	7.51	1.52	0.750			
0.1935	12381.71	4.0590	4.0590	0.7845	7.50	1.51	0.750			
0.1958	12532.61	4.0560	4.0560	0.7906	7.50	1.51	0.750			
0.1981	12681.25	4.0530	4.0528	0.7921	7.49	1.50	0.750			
0.2005	12834.07	4.0500	4.0502	0.7952	7.49	1.50	0.750			
0.2029	12988.57	4.0470	4.0470	0.8042	7.48	1.49	0.750			
0.2054	13144.80	4.0440	4.0440	0.8078	7.48	1.49	0.750			
0.2079	13302.77	4.0410	4.0410	0.8114	7.48	1.49	0.750			
0.2102	13455.96	4.0380	4.0380	0.8057	7.47	1.48	0.750			
0.2127	13610.69	4.0350	4.0350	0.8100	7.47	1.48	0.750			
0.2151	13766.34	4.0320	4.0320	0.8077	7.46	1.47	0.750			
0.2175	13921.76	4.0290	4.0290	0.8130	7.45	1.46	0.750			
0.2200	14077.13	4.0260	4.0261	0.8162	7.44	1.45	0.750			
0.2224	14232.75	4.0230	4.0230	0.8296	7.43	1.44	0.750			
0.2249	14393.87	4.0200	4.0200	0.8377	7.43	1.44	0.750			
0.2275	14559.22	4.0170	4.0169	0.8334	7.42	1.43	0.750			
0.2300	14718.40	4.0140	4.0141	0.8370	7.42	1.43	0.750			
0.2325	14881.03	4.0110	4.0111	0.8413	7.42	1.43	0.750			
0.2350	15040.57	4.0080	4.0082	0.8382	7.41	1.42	0.750			
0.2375	15200.32	4.0050	4.0051	0.8380	7.41	1.42	0.750			
0.2400	15360.78	4.0020	4.0020	0.8348	7.40	1.41	0.750			
0.2425	15523.11	3.9990	3.9990	0.8416	7.39	1.40	0.750			
0.2451	15684.48	3.9960	3.9961	0.8493	7.38	1.39	0.750			
0.2476	15846.98	3.9930	3.9930	0.8503	7.37	1.38	0.750			
0.2502	16011.17	3.9900	3.9900	0.8570	7.37	1.38	0.750			
0.2528	16176.99	3.9870	3.9871	0.8550	7.36	1.37	0.750			
0.2553	16341.48	3.9840	3.9840	0.8654	7.35	1.36	0.750			
0.2580	16509.34	3.9810	3.9809	0.8730	7.34	1.35	0.750			
0.2606	16676.45	3.9780	3.9779	0.8767	7.33	1.34	0.750			
0.2632	16844.55	3.9750	3.9751	0.8782	7.33	1.34	0.750			
0.2659	17014.65	3.9720	3.9720	0.8822	7.32	1.33	0.750			
0.2685	17183.90	3.9690	3.9690	0.8916	7.32	1.33	0.750			
0.2712	17354.73	3.9660	3.9660	0.8948	7.31	1.32	0.750			
0.2739	17527.17	3.9630	3.9625	0.9046	7.31	1.32	0.750			
0.2766	17704.60	3.9600	3.9600	0.9048	7.30	1.31	0.750			
0.2794	17879.81	3.9570	3.9571	0.9062	7.30	1.31	0.750			
0.2821	18055.57	3.9540	3.9540	0.9104	7.29	1.30	0.750			
0.2848	18229.68	3.9510	3.9510	0.9063	7.28	1.29	0.750			
0.2875	18397.63	3.9480	3.9482	0.9118	7.28	1.29	0.750			
0.2903	18576.83	3.9450	3.9448	0.9010	7.26	1.27	0.750			
0.2930	18748.92	3.9420	3.9420	0.9201	7.25	1.26	0.750			
0.2957	18927.06	3.9390	3.9391	0.9322	7.24	1.25	0.750			
0.2985	19106.24	3.9360	3.9356	0.9411	7.23	1.24	0.750			
0.3014	19288.65	3.9330	3.9332	0.9518	7.22	1.23	0.750			
0.3042	19470.89	3.9300	3.9300	0.9470	7.22	1.23	0.750			
0.3070	19649.80	3.9270	3.9272	0.9670	7.21	1.22	0.750			
0.3099	19836.77	3.9240	3.9240	0.9674	7.20	1.21	0.750			
0.3129	20026.84	3.9210	3.9211	0.9731	7.20	1.21	0.750			
0.3159	20215.87	3.9180	3.9182	0.9849	7.19	1.20	0.750			
0.3189	20407.35	3.9150	3.9152	0.9945	7.18	1.19	0.750			
0.3219	20600.54	3.9120	3.9119	0.9986	7.17	1.18	0.750			
0.3248	20790.36	3.9090	3.9091	0.9944	7.17	1.18	0.750			
0.3278	20979.80	3.9060	3.9061	1.0018	7.16	1.17	0.750			
0.3309	21175.16	3.9030	3.9030	1.0196	7.15	1.16	0.750			
0.3339	21371.54	3.9000	3.9000	1.0296	7.14	1.15	0.750			
0.3371	21572.89	3.8970	3.8970	1.0311	7.13	1.14	0.750			
0.3401	21767.77	3.8940	3.8941	1.0463	7.11	1.12	0.750			
0.3433	21969.78	3.8910	3.8911	1.0635	7.10	1.11	0.750			
0.3465	22173.93	3.8880	3.8881	1.0827	7.09	1.10	0.750			
0.3498	22386.06	3.8850	3.8848	1.0857	7.08	1.09	0.750			
0.3530	22594.22	3.8820	3.8821	1.1041	7.07	1.08	0.750			
0.3564	22807.30	3.8790	3.8791	1.1258	7.06	1.07	0.750			
0.3598	23025.43	3.8760	3.8762	1.1482	7.04	1.05	0.750			
0.3632	23246.66	3.8730	3.8730	1.1431	7.04	1.05	0.750			
0.3667	23468.89	3.8700	3.8701	1.1575	7.03	1.04	0.750			
0.3702	23692.18	3.8670	3.8672	1.1742	7.02	1.03	0.750			
0.3738	23925.70	3.8640	3.8634	1.1805	7.01	1.02	0.750			
0.3772	24143.70	3.8610	3.8612	1.1866	7.00	1.01	0.750			
0.3808	24372.19	3.8580	3.8581	1.2111	6.99	1.00	0.750			
0.3845	24608.80	3.8550	3.8551	1.2278	6.98	0.99	0.750			
0.3882	24845.54	3.8520	3.8519	1.2483	6.96	0.97	0.750			
0.3920	25089.92	3.8490	3.8491	1.2711	6.94	0.95	0.750			
0.3958	25334.15	3.8460	3.8461	1.2965	6.92	0.93	0.750			
0.3998	25586.01	3.8430	3.8431	1.3401	6.91	0.92	0.750			
0.4038	25841.07	3.8400	3.8400	1.3497	6.89	0.90	0.750			
0.4079	26106.96	3.8370	3.8370	1.3764	6.88	0.89	0.750	0.371	0.866	
0.4121	26374.72	3.8340	3.8343	1.4122	6.87	0.88	0.750			
0.4164	26649.47	3.8310	3.8305	1.4347	6.85	0.86	0.750			
0.4208	26934.35	3.8280	3.8282	1.4574	6.84	0.85	0.750			
0.4253	27218.33	3.8250	3.8250	1.4732	6.83	0.84	0.750			
0.4297	27497.68	3.8220	3.8221	1.4998	6.81	0.82	0.750			
0.4341	27784.77	3.8190	3.8193	1.5268	6.80	0.81	0.750			
0.4386	28073.55	3.8160	3.8161	1.6253	6.78	0.79	0.750			
0.4436	28391.68	3.8130	3.8132	1.7680	6.77	0.78	0.750			
0.4491	28744.64	3.8100	3.8094	1.8178	6.75	0.76	0.750			
0.4550	29120.62	3.8070	3.8074	1.8718	6.72	0.73	0.750			
0.4607	29482.00	3.8040	3.8039	1.8601	6.69	0.70	0.750			
0.4662	29834.38	3.8010	3.8009	1.7730	6.67	0.68	0.750			
0.4712	30157.69	3.7980	3.7982	1.7527	6.66	0.67	0.750			
0.4766	30500.65	3.7950	3.7951	1.7833	6.64	0.65	0.750			
0.4818	30836.29	3.7920	3.7919	1.8109	6.62	0.63	0.750			
0.4872	31183.67	3.7890	3.7888	1.8431	6.61	0.62	0.750			
0.4928	31542.01	3.7860	3.7858	1.8623	6.58	0.59	0.750			
0.4985	31903.41	3.7830	3.7828	1.9149	6.56	0.57	0.750			
0.5043	32274.80	3.7800	3.7800	1.9248	6.54	0.55	0.750			
0.5103	32657.83	3.7770	3.7769	1.9382	6.51	0.52	0.750			
0.5161	33033.52	3.7740	3.7741	1.9487	6.49	0.50	0.750			
0.5221	33415.52	3.7710	3.7710	1.9548	6.48	0.49	0.750			
0.5279	33783.25	3.7680	3.7679	1.9872	6.45	0.46	0.750			
0.5339	34167.48	3.7650	3.7649	2.0324	6.43	0.44	0.750			
0.5400	34560.48	3.7620	3.7621	2.0539	6.41	0.42	0.750			
0.5462	34957.62	3.7590	3.7590	2.1038	6.40	0.41	0.750			
0.5527	35371.17	3.7560	3.7559	2.1008	6.38	0.39	0.750			
0.5589	35772.66	3.7530	3.7531	2.1067	6.36	0.37	0.750			
0.5652	36170.57	3.7500	3.7499	2.2046	6.34	0.35	0.750			
0.5719	36598.64	3.7470	3.7469	2.2735	6.32	0.33	0.750			
0.5789	37047.81	3.7440	3.7441	2.3393	6.29	0.30	0.750			
0.5859	37497.32	3.7410	3.7412	2.3487	6.27	0.28	0.750			
0.5928	37937.67	3.7380	3.7378	2.4196	6.25	0.26	0.750			
0.6003	38417.63	3.7350	3.7349	2.5138	6.23	0.24	0.750			
0.6079	38907.39	3.7320	3.7321	2.5653	6.20	0.21	0.750			
0.6157	39406.23	3.7290	3.7289	2.5980	6.18	0.19	0.750			
0.6236	39910.13	3.7260	3.7263	2.5966	6.15	0.16	0.750			
0.6314	40412.32	3.7230	3.7230	2.5638	6.13	0.14	0.750			
0.6391	40902.05	3.7200	3.7198	2.3718	6.11	0.12	0.750			
0.6462	41358.50	3.7170	3.7170	2.2867	6.09	0.10	0.750			
0.6528	41778.98	3.7140	3.7143	2.0908	6.07	0.08	0.750			
0.6588	42162.60	3.7110	3.7113	1.8655	6.05	0.06	0.750			
0.6641	42499.39	3.7080	3.7080	1.6758	6.04	0.05	0.750			
0.6686	42792.98	3.7050	3.7052	1.4857	6.03	0.04	0.750			
0.6728	43058.89	3.7020	3.7018	1.3291	6.03	0.04	0.750			
0.6764	43292.49	3.6990	3.6990	1.1766	6.03	0.04	0.750			
0.6796	43495.69	3.6960	3.6960	1.0786	6.02	0.03	0.750			
0.6826	43684.78	3.6930	3.6931	1.0018	6.02	0.03	0.750			
0.6854	43864.62	3.6900	3.6899	0.9436	6.01	0.02	0.750			
0.6882	44043.51	3.6870	3.6870	0.9132	6.01	0.02	0.750			
0.6908	44214.31	3.6840	3.6841	0.8813	6.00	0.01	0.750			
0.6935	44381.73	3.6810	3.6811	0.8502	6.00	0.01	0.750			
0.6960	44544.11	3.6780	3.6780	0.8157	5.99	0.00	0.750			
0.6984	44698.23	3.6750	3.6749	0.7814	5.99	0.00	0.750			
0.7007	44844.65	3.6720	3.6720	0.7441	5.99	0.00	0.750			
0.7029	44984.46	3.6690	3.6690	0.7103	5.99	0.00	0.750			
0.7050	45118.58	3.6660	3.6660	0.6710	5.99	0.00	0.750			
0.7069	45242.49	3.6630	3.6629	0.6301	5.99	0.00	0.750			
0.7088	45360.45	3.6600	3.6600	0.5928	5.99	0.00	0.750			
0.7105	45470.58	3.6570	3.6571	0.5531	5.99	0.00	0.750			
0.7121	45573.10	3.6540	3.6539	0.5132	5.99	0.00	0.750			
0.7136	45668.42	3.6510	3.6510	0.4721	5.99	0.00	0.750			
0.7149	45754.42	3.6480	3.6480	0.4328	5.99	0.00	0.750			
0.7162	45834.13	3.6450	3.6450	0.3977	5.99	0.00	0.750			
0.7173	45905.57	3.6420	3.6419	0.3597	5.99	0.00	0.750			
0.7183	45970.59	3.6390	3.6390	0.3248	5.99	0.00	0.750			
0.7192	46029.78	3.6360	3.6360	0.2908	5.99	0.00	0.750			
0.7201	46084.47	3.6330	3.6329	0.2569	5.99	0.00	0.750			
0.7208	46130.76	3.6300	3.6299	0.2203	5.99	0.00	0.750			
0.7214	46169.33	3.6270	3.6270	0.1808	5.99	0.00	0.750			
0.7219	46200.55	3.6240	3.6241	0.1410	5.99	0.00	0.750			
0.7223	46224.90	3.6210	3.6214	0.1003	5.99	0.00	0.750			
0.7225	46240.02	3.6180	3.6189	0.0573	5.99	0.00	0.750			
0.7226	46246.92	3.6150	3.6167	0.0109	5.99	0.00	0.750			
