Ah_balance (normalized)	Ah_balance (mAh)	Voltage - fit (V)	Voltage -  interpolate (V)	dQ/dV (1/V)	Temperature (°C)	Temperature - diff (°C)	Current (C)	R_DC 0ms (mOhm)	R_DC 50ms (mOhm)	R_DC 50 ms PEC (mOhm)
0.1803	11537.90	4.0810	4.0810	0.7642	7.10	1.12	0.750			
0.1826	11685.59	4.0780	4.0781	0.7729	7.09	1.11	0.750			
0.1849	11834.07	4.0750	4.0749	0.7820	7.09	1.11	0.750			
0.1873	11986.99	4.0720	4.0720	0.7851	7.09	1.11	0.750			
0.1897	12138.59	4.0690	4.0690	0.7858	7.08	1.10	0.750			
0.1920	12289.51	4.0660	4.0661	0.7917	7.08	1.10	0.750			
0.1944	12442.87	4.0630	4.0630	0.7948	7.08	1.10	0.750			
0.1968	12593.09	4.0600	4.0599	0.7969	7.07	1.09	0.750			
0.1992	12747.15	4.0570	4.0570	0.7996	7.07	1.09	0.750			
0.2016	12903.15	4.0540	4.0540	0.7926	7.06	1.08	0.750			
0.2040	13054.75	4.0510	4.0510	0.8024	7.05	1.07	0.750			
0.2064	13208.80	4.0480	4.0481	0.8028	7.04	1.06	0.750			
0.2088	13361.61	4.0450	4.0450	0.8063	7.03	1.05	0.750			
0.2112	13516.28	4.0420	4.0419	0.8103	7.03	1.05	0.750			
0.2137	13674.43	4.0390	4.0391	0.8046	7.02	1.04	0.750			
0.2161	13829.47	4.0360	4.0361	0.8152	7.01	1.03	0.750			
0.2185	13985.73	4.0330	4.0330	0.8200	7.00	1.02	0.750			
0.2210	14141.46	4.0300	4.0300	0.8175	7.00	1.02	0.750			
0.2234	14298.81	4.0270	4.0270	0.8284	6.99	1.01	0.750			
0.2259	14459.38	4.0240	4.0241	0.8313	6.98	1.00	0.750			
0.2286	14627.36	4.0210	4.0209	0.8246	6.97	0.99	0.750			
0.2311	14787.69	4.0180	4.0179	0.8064	6.96	0.98	0.750			
0.2334	14938.26	4.0150	4.0153	0.7878	6.96	0.98	0.750			
0.2357	15085.41	4.0120	4.0122	0.7785	6.95	0.97	0.750			
0.2380	15229.46	4.0090	4.0086	0.7885	6.94	0.96	0.750			
0.2402	15373.31	4.0060	4.0059	0.7913	6.93	0.95	0.750			
0.2426	15526.85	4.0030	4.0030	0.8173	6.93	0.95	0.750			
0.2452	15691.96	4.0000	4.0001	0.8358	6.92	0.94	0.750			
0.2478	15858.43	3.9970	3.9970	0.8561	6.91	0.93	0.750			
0.2504	16024.93	3.9940	3.9941	0.8598	6.90	0.92	0.750			
0.2530	16189.63	3.9910	3.9910	0.8608	6.90	0.92	0.750			
0.2555	16354.05	3.9880	3.9879	0.8616	6.89	0.91	0.750			
0.2581	16519.90	3.9850	3.9851	0.8663	6.89	0.91	0.750			
0.2607	16685.16	3.9820	3.9822	0.8717	6.88	0.90	0.750			
0.2634	16855.42	3.9790	3.9790	0.8735	6.87	0.89	0.750			
0.2660	17021.43	3.9760	3.9760	0.8721	6.87	0.89	0.750			
0.2686	17189.64	3.9730	3.9730	0.8780	6.86	0.88	0.750			
0.2712	17358.76	3.9700	3.9702	0.8817	6.85	0.87	0.750			
0.2739	17528.85	3.9670	3.9668	0.8862	6.85	0.87	0.750			
0.2765	17698.72	3.9640	3.9641	0.8882	6.84	0.86	0.750			
0.2792	17869.36	3.9610	3.9611	0.8958	6.84	0.86	0.750			
0.2819	18042.42	3.9580	3.9579	0.9074	6.84	0.86	0.750			
0.2846	18216.40	3.9550	3.9549	0.9083	6.83	0.85	0.750			
0.2874	18392.80	3.9520	3.9520	0.9070	6.82	0.84	0.750			
0.2901	18566.58	3.9490	3.9490	0.9132	6.81	0.83	0.750			
0.2929	18743.55	3.9460	3.9461	0.9211	6.81	0.83	0.750			
0.2956	18919.62	3.9430	3.9431	0.9273	6.80	0.82	0.750			
0.2984	19095.96	3.9400	3.9399	0.9320	6.79	0.81	0.750			
0.3012	19275.80	3.9370	3.9370	0.9419	6.78	0.80	0.750			
0.3040	19457.70	3.9340	3.9340	0.9555	6.77	0.79	0.750			
0.3069	19643.20	3.9310	3.9310	0.9638	6.76	0.78	0.750			
0.3098	19830.11	3.9280	3.9279	0.9656	6.75	0.77	0.750			
0.3128	20019.71	3.9250	3.9251	0.9636	6.74	0.76	0.750			
0.3157	20204.78	3.9220	3.9220	0.9709	6.73	0.75	0.750			
0.3186	20389.34	3.9190	3.9190	0.9762	6.72	0.74	0.750			
0.3215	20573.98	3.9160	3.9160	0.9828	6.71	0.73	0.750			
0.3245	20765.26	3.9130	3.9131	0.9864	6.71	0.73	0.750			
0.3274	20955.86	3.9100	3.9100	1.0042	6.70	0.72	0.750			
0.3305	21150.32	3.9070	3.9071	1.0149	6.69	0.71	0.750			
0.3335	21346.85	3.9040	3.9039	1.0298	6.68	0.70	0.750			
0.3367	21546.22	3.9010	3.9010	1.0322	6.68	0.70	0.750			
0.3398	21744.07	3.8980	3.8981	1.0412	6.67	0.69	0.750			
0.3429	21944.20	3.8950	3.8951	1.0516	6.66	0.68	0.750			
0.3461	22148.81	3.8920	3.8921	1.0661	6.65	0.67	0.750			
0.3492	22351.98	3.8890	3.8890	1.0732	6.65	0.67	0.750			
0.3525	22560.11	3.8860	3.8860	1.0867	6.63	0.65	0.750			
0.3558	22769.75	3.8830	3.8830	1.0996	6.62	0.64	0.750			
0.3591	22985.03	3.8800	3.8800	1.1169	6.61	0.63	0.750			
0.3625	23197.75	3.8770	3.8769	1.1218	6.60	0.62	0.750			
0.3658	23413.11	3.8740	3.8741	1.1406	6.59	0.61	0.750			
0.3693	23634.44	3.8710	3.8710	1.1504	6.58	0.60	0.750			
0.3728	23857.85	3.8680	3.8677	1.1575	6.57	0.59	0.750			
0.3762	24079.97	3.8650	3.8651	1.1816	6.56	0.58	0.750			
0.3798	24307.18	3.8620	3.8621	1.1992	6.56	0.58	0.750			
0.3835	24541.21	3.8590	3.8589	1.2167	6.55	0.57	0.750			
0.3871	24774.32	3.8560	3.8560	1.2328	6.54	0.56	0.750			
0.3908	25013.26	3.8530	3.8531	1.2593	6.53	0.55	0.750			
0.3947	25261.09	3.8500	3.8501	1.2832	6.52	0.54	0.750			
0.3986	25507.23	3.8470	3.8470	1.3121	6.51	0.53	0.750			
0.4025	25757.70	3.8440	3.8441	1.3346	6.50	0.52	0.750			
0.4065	26018.69	3.8410	3.8410	1.3622	6.50	0.52	0.750			
0.4107	26282.93	3.8380	3.8378	1.3968	6.49	0.51	0.750	0.397	0.962	
0.4149	26554.49	3.8350	3.8352	1.4276	6.47	0.49	0.750			
0.4193	26834.84	3.8320	3.8320	1.4478	6.46	0.48	0.750			
0.4237	27118.77	3.8290	3.8291	1.4720	6.45	0.47	0.750			
0.4280	27395.14	3.8260	3.8261	1.4837	6.43	0.45	0.750			
0.4325	27680.64	3.8230	3.8232	1.5317	6.42	0.44	0.750			
0.4371	27975.73	3.8200	3.8199	1.5512	6.41	0.43	0.750			
0.4418	28275.39	3.8170	3.8169	1.5794	6.40	0.42	0.750			
0.4466	28584.53	3.8140	3.8138	1.5904	6.39	0.41	0.750			
0.4516	28903.03	3.8110	3.8111	1.6063	6.38	0.40	0.750			
0.4563	29205.59	3.8080	3.8081	1.6299	6.36	0.38	0.750			
0.4612	29516.94	3.8050	3.8048	1.6580	6.35	0.37	0.750			
0.4662	29838.27	3.8020	3.8016	1.7002	6.33	0.35	0.750			
0.4714	30167.88	3.7990	3.7991	1.7688	6.31	0.33	0.750			
0.4769	30520.01	3.7960	3.7959	1.8169	6.30	0.32	0.750			
0.4826	30883.44	3.7930	3.7927	1.8584	6.29	0.31	0.750			
0.4881	31237.34	3.7900	3.7902	1.8609	6.28	0.30	0.750			
0.4937	31598.35	3.7870	3.7871	1.8676	6.26	0.28	0.750			
0.4993	31956.81	3.7840	3.7840	1.8923	6.24	0.26	0.750			
0.5049	32312.18	3.7810	3.7810	1.9326	6.22	0.24	0.750			
0.5108	32689.70	3.7780	3.7778	1.9433	6.21	0.23	0.750			
0.5168	33073.82	3.7750	3.7751	1.9709	6.19	0.21	0.750			
0.5228	33461.38	3.7720	3.7718	2.0054	6.18	0.20	0.750			
0.5287	33839.75	3.7690	3.7693	2.0754	6.17	0.19	0.750			
0.5351	34247.68	3.7660	3.7661	2.0717	6.15	0.17	0.750			
0.5415	34654.09	3.7630	3.7631	2.1147	6.13	0.15	0.750			
0.5480	35072.84	3.7600	3.7602	2.1601	6.11	0.13	0.750			
0.5544	35483.73	3.7570	3.7570	2.1260	6.10	0.12	0.750			
0.5607	35882.18	3.7540	3.7542	2.1969	6.09	0.11	0.750			
0.5675	36318.25	3.7510	3.7511	2.3047	6.07	0.09	0.750			
0.5745	36765.87	3.7480	3.7479	2.2579	6.05	0.07	0.750			
0.5814	37209.19	3.7450	3.7453	2.2829	6.04	0.06	0.750			
0.5881	37639.48	3.7420	3.7417	2.3685	6.03	0.05	0.750			
0.5952	38095.63	3.7390	3.7389	2.4053	6.01	0.03	0.750			
0.6027	38575.05	3.7360	3.7363	2.5912	6.00	0.02	0.750			
0.6108	39091.81	3.7330	3.7330	2.5975	5.98	-0.00	0.750			
0.6187	39599.62	3.7300	3.7301	2.6282	5.95	-0.03	0.750			
0.6268	40112.07	3.7270	3.7267	2.6153	5.93	-0.05	0.750			
0.6344	40604.64	3.7240	3.7238	2.5837	5.92	-0.06	0.750			
0.6423	41109.01	3.7210	3.7210	2.6570	5.91	-0.07	0.750			
0.6504	41627.68	3.7180	3.7178	2.5199	5.91	-0.07	0.750			
0.6578	42097.14	3.7150	3.7152	2.3316	5.91	-0.07	0.750			
0.6643	42517.50	3.7120	3.7124	2.1074	5.91	-0.07	0.750			
0.6703	42899.90	3.7090	3.7094	1.8770	5.91	-0.07	0.750			
0.6755	43233.85	3.7060	3.7062	1.6744	5.91	-0.07	0.750			
0.6803	43538.61	3.7030	3.7031	1.5002	5.91	-0.07	0.750			
0.6845	43805.26	3.7000	3.6999	1.3338	5.91	-0.07	0.750			
0.6881	44040.17	3.6970	3.6969	1.1648	5.91	-0.07	0.750			
0.6913	44242.06	3.6940	3.6941	1.0603	5.92	-0.06	0.750			
0.6942	44429.14	3.6910	3.6910	0.9685	5.92	-0.06	0.750			
0.6969	44602.58	3.6880	3.6878	0.9031	5.93	-0.05	0.750			
0.6995	44767.20	3.6850	3.6851	0.8514	5.93	-0.05	0.750			
0.7019	44924.13	3.6820	3.6820	0.7971	5.94	-0.04	0.750			
0.7043	45078.24	3.6790	3.6790	0.7698	5.94	-0.04	0.750			
0.7066	45221.25	3.6760	3.6761	0.7299	5.94	-0.04	0.750			
0.7087	45357.03	3.6730	3.6731	0.6916	5.95	-0.03	0.750			
0.7108	45488.48	3.6700	3.6697	0.6524	5.95	-0.03	0.750			
0.7127	45610.11	3.6670	3.6672	0.6101	5.96	-0.02	0.750			
0.7144	45723.73	3.6640	3.6641	0.5677	5.96	-0.02	0.750			
0.7161	45829.66	3.6610	3.6611	0.5242	5.96	-0.02	0.750			
0.7176	45924.31	3.6580	3.6579	0.4760	5.97	-0.01	0.750			
0.7189	46011.22	3.6550	3.6550	0.4344	5.97	-0.01	0.750			
0.7202	46090.55	3.6520	3.6520	0.3975	5.97	-0.01	0.750			
0.7213	46162.64	3.6490	3.6491	0.3625	5.98	-0.00	0.750			
0.7223	46229.01	3.6460	3.6458	0.3264	5.98	-0.00	0.750			
0.7233	46288.25	3.6430	3.6430	0.2914	5.98	0.00	0.750			
0.7241	46341.59	3.6400	3.6400	0.2560	5.98	0.00	0.750			
0.7248	46387.34	3.6370	3.6370	0.2197	5.99	0.01	0.750			
0.7254	46427.30	3.6340	3.6339	0.1851	5.99	0.01	0.750			
0.7259	46458.26	3.6310	3.6310	0.1452	5.99	0.01	0.750			
0.7263	46482.55	3.6280	3.6285	0.1075	5.99	0.01	0.750			
0.7266	46499.29	3.6250	3.6258	0.0706	5.99	0.01	0.750			
0.7267	46509.51	3.6220	3.6225	0.0233	5.99	0.01	0.750			
