Ah_balance (normalized)	Ah_balance (mAh)	Voltage - fit (V)	Voltage -  interpolate (V)	dQ/dV (1/V)	Temperature (°C)	Temperature - diff (°C)	Current (C)	R_DC 0ms (mOhm)	R_DC 50ms (mOhm)	R_DC 50 ms PEC (mOhm)
0.0963	6162.92	4.0040	4.0034	-0.0745	5.97	0.00	-0.750			
0.0966	6180.01	4.0010	4.0008	-0.1036	5.97	0.00	-0.750			
0.0969	6203.05	3.9980	3.9978	-0.1321	5.97	0.00	-0.750			
0.0974	6231.51	3.9950	3.9951	-0.1586	5.97	0.00	-0.750			
0.0979	6264.65	3.9920	3.9920	-0.1838	5.97	0.00	-0.750			
0.0985	6302.44	3.9890	3.9891	-0.2091	5.97	0.00	-0.750			
0.0992	6345.72	3.9860	3.9860	-0.2347	5.97	0.00	-0.750			
0.0999	6393.86	3.9830	3.9829	-0.2548	5.97	0.00	-0.750			
0.1007	6445.49	3.9800	3.9800	-0.2760	5.97	0.00	-0.750			
0.1016	6499.82	3.9770	3.9771	-0.3001	5.97	0.00	-0.750			
0.1025	6559.12	3.9740	3.9741	-0.3243	5.97	0.00	-0.750			
0.1035	6622.69	3.9710	3.9708	-0.3496	5.97	0.00	-0.750			
0.1046	6692.20	3.9680	3.9680	-0.3743	5.97	0.00	-0.750			
0.1057	6767.47	3.9650	3.9650	-0.3965	5.97	0.00	-0.750			
0.1070	6846.68	3.9620	3.9620	-0.4205	5.97	0.00	-0.750			
0.1083	6930.42	3.9590	3.9592	-0.4414	5.97	0.00	-0.750			
0.1096	7015.76	3.9560	3.9560	-0.4631	5.97	0.00	-0.750			
0.1110	7106.65	3.9530	3.9529	-0.4822	5.97	0.00	-0.750			
0.1125	7201.05	3.9500	3.9499	-0.5049	5.97	0.00	-0.750			
0.1141	7300.20	3.9470	3.9471	-0.5278	5.97	0.00	-0.750			
0.1157	7404.34	3.9440	3.9440	-0.5471	5.97	0.00	-0.750			
0.1174	7511.86	3.9410	3.9409	-0.5650	5.97	0.00	-0.750			
0.1191	7622.74	3.9380	3.9380	-0.5811	5.97	0.00	-0.750			
0.1209	7735.04	3.9350	3.9352	-0.5937	5.97	0.00	-0.750			
0.1227	7851.50	3.9320	3.9320	-0.6093	5.97	0.00	-0.750			
0.1245	7969.82	3.9290	3.9290	-0.6162	5.97	0.00	-0.750			
0.1264	8088.92	3.9260	3.9260	-0.6285	5.97	0.00	-0.750			
0.1283	8210.81	3.9230	3.9231	-0.6413	5.97	0.00	-0.750			
0.1302	8335.01	3.9200	3.9198	-0.6490	5.97	0.00	-0.750			
0.1322	8460.49	3.9170	3.9169	-0.6592	5.97	0.00	-0.750			
0.1342	8588.21	3.9140	3.9141	-0.6678	5.97	0.00	-0.750			
0.1362	8717.43	3.9110	3.9110	-0.6776	5.97	0.00	-0.750			
0.1383	8848.98	3.9080	3.9080	-0.6875	5.98	0.01	-0.750			
0.1403	8981.30	3.9050	3.9050	-0.6884	5.98	0.01	-0.750			
0.1424	9115.13	3.9020	3.9019	-0.6960	5.98	0.01	-0.750			
0.1445	9249.73	3.8990	3.8990	-0.6973	5.99	0.02	-0.750			
0.1466	9382.86	3.8960	3.8962	-0.6996	5.99	0.02	-0.750			
0.1487	9516.48	3.8930	3.8929	-0.7068	6.00	0.03	-0.750			
0.1508	9652.19	3.8900	3.8899	-0.7113	6.00	0.03	-0.750			
0.1530	9789.30	3.8870	3.8870	-0.7129	6.01	0.04	-0.750			
0.1551	9927.63	3.8840	3.8841	-0.7189	6.01	0.04	-0.750			
0.1573	10066.80	3.8810	3.8811	-0.7246	6.02	0.05	-0.750			
0.1595	10207.60	3.8780	3.8780	-0.7246	6.02	0.05	-0.750			
0.1616	10345.07	3.8750	3.8749	-0.7232	6.03	0.06	-0.750			
0.1638	10484.20	3.8720	3.8721	-0.7264	6.03	0.06	-0.750			
0.1660	10624.84	3.8690	3.8690	-0.7300	6.04	0.07	-0.750			
0.1682	10765.77	3.8660	3.8659	-0.7284	6.04	0.07	-0.750			
0.1704	10904.90	3.8630	3.8632	-0.7300	6.05	0.08	-0.750			
0.1726	11044.96	3.8600	3.8600	-0.7311	6.06	0.09	-0.750			
0.1748	11186.07	3.8570	3.8570	-0.7358	6.06	0.09	-0.750			
0.1770	11326.95	3.8540	3.8540	-0.7461	6.07	0.10	-0.750			
0.1792	11470.72	3.8510	3.8510	-0.7506	6.08	0.11	-0.750			
0.1815	11618.36	3.8480	3.8478	-0.7524	6.09	0.12	-0.750			
0.1838	11763.60	3.8450	3.8452	-0.7533	6.09	0.12	-0.750			
0.1861	11907.85	3.8420	3.8420	-0.7536	6.10	0.13	-0.750			
0.1883	12054.12	3.8390	3.8388	-0.7533	6.10	0.13	-0.750			
0.1906	12196.56	3.8360	3.8360	-0.7422	6.11	0.14	-0.750			
0.1928	12340.25	3.8330	3.8330	-0.7453	6.11	0.14	-0.750			
0.1951	12484.13	3.8300	3.8301	-0.7485	6.12	0.15	-0.750			
0.1973	12627.76	3.8270	3.8268	-0.7483	6.13	0.16	-0.750			
0.1995	12768.25	3.8240	3.8239	-0.7458	6.13	0.16	-0.750			
0.2017	12911.58	3.8210	3.8210	-0.7515	6.14	0.17	-0.750			
0.2040	13058.28	3.8180	3.8180	-0.7515	6.15	0.18	-0.750			
0.2064	13207.27	3.8150	3.8149	-0.7510	6.15	0.18	-0.750			
0.2086	13348.91	3.8120	3.8122	-0.7505	6.16	0.19	-0.750			
0.2108	13491.65	3.8090	3.8091	-0.7475	6.17	0.20	-0.750			
0.2130	13634.41	3.8060	3.8058	-0.7545	6.18	0.21	-0.750			
0.2153	13777.26	3.8030	3.8029	-0.7569	6.19	0.22	-0.750			
0.2176	13926.75	3.8000	3.8000	-0.7607	6.20	0.23	-0.750			
0.2199	14073.23	3.7970	3.7971	-0.7611	6.21	0.24	-0.750			
0.2222	14221.26	3.7940	3.7940	-0.7648	6.21	0.24	-0.750			
0.2245	14365.59	3.7910	3.7910	-0.7646	6.22	0.25	-0.750			
0.2268	14512.20	3.7880	3.7879	-0.7607	6.22	0.25	-0.750			
0.2290	14658.57	3.7850	3.7849	-0.7523	6.22	0.25	-0.750			
0.2313	14803.22	3.7820	3.7821	-0.7533	6.23	0.26	-0.750			
0.2335	14947.19	3.7790	3.7793	-0.7563	6.23	0.26	-0.750			
0.2358	15090.17	3.7760	3.7761	-0.7567	6.24	0.27	-0.750			
0.2381	15235.65	3.7730	3.7727	-0.7635	6.25	0.28	-0.750			
0.2403	15381.24	3.7700	3.7701	-0.7661	6.25	0.28	-0.750			
0.2427	15533.17	3.7670	3.7670	-0.7713	6.26	0.29	-0.750			
0.2451	15684.88	3.7640	3.7641	-0.7799	6.27	0.30	-0.750			
0.2474	15832.35	3.7610	3.7609	-0.7757	6.27	0.30	-0.750			
0.2496	15976.50	3.7580	3.7580	-0.7744	6.28	0.31	-0.750			
0.2520	16126.71	3.7550	3.7549	-0.7747	6.28	0.31	-0.750			
0.2543	16275.07	3.7520	3.7521	-0.7800	6.28	0.31	-0.750			
0.2567	16427.99	3.7490	3.7490	-0.7854	6.29	0.32	-0.750			
0.2590	16579.06	3.7460	3.7460	-0.7879	6.29	0.32	-0.750			
0.2614	16727.77	3.7430	3.7430	-0.7937	6.30	0.33	-0.750			
0.2638	16881.47	3.7400	3.7400	-0.7995	6.31	0.34	-0.750			
0.2662	17035.50	3.7370	3.7369	-0.8022	6.32	0.35	-0.750			
0.2686	17191.88	3.7340	3.7340	-0.8124	6.32	0.35	-0.750			
0.2711	17347.81	3.7310	3.7311	-0.8137	6.33	0.36	-0.750			
0.2735	17505.49	3.7280	3.7280	-0.8159	6.34	0.37	-0.750			
0.2760	17662.14	3.7250	3.7250	-0.8199	6.34	0.37	-0.750			
0.2784	17819.12	3.7220	3.7219	-0.8225	6.35	0.38	-0.750			
0.2809	17977.91	3.7190	3.7190	-0.8305	6.35	0.38	-0.750			
0.2834	18136.99	3.7160	3.7161	-0.8364	6.36	0.39	-0.750			
0.2859	18297.92	3.7130	3.7130	-0.8422	6.37	0.40	-0.750			
0.2885	18462.67	3.7100	3.7099	-0.8504	6.37	0.40	-0.750			
0.2910	18626.04	3.7070	3.7070	-0.8563	6.38	0.41	-0.750			
0.2936	18791.66	3.7040	3.7040	-0.8636	6.39	0.42	-0.750			
0.2962	18956.85	3.7010	3.7011	-0.8696	6.39	0.42	-0.750			
0.2988	19122.76	3.6980	3.6979	-0.8773	6.39	0.42	-0.750			
0.3014	19292.11	3.6950	3.6950	-0.8850	6.39	0.42	-0.750			
0.3041	19461.92	3.6920	3.6919	-0.8917	6.39	0.42	-0.750			
0.3069	19638.44	3.6890	3.6890	-0.9088	6.39	0.42	-0.750			
0.3096	19811.91	3.6860	3.6860	-0.9110	6.39	0.42	-0.750			
0.3123	19987.59	3.6830	3.6829	-0.9230	6.40	0.43	-0.750			
0.3151	20166.01	3.6800	3.6800	-0.9279	6.41	0.44	-0.750			
0.3179	20343.87	3.6770	3.6770	-0.9339	6.42	0.45	-0.750			
0.3207	20524.31	3.6740	3.6742	-0.9443	6.43	0.46	-0.750			
0.3235	20706.97	3.6710	3.6709	-0.9582	6.43	0.46	-0.750			
0.3265	20893.10	3.6680	3.6679	-0.9611	6.43	0.46	-0.750			
0.3294	21078.70	3.6650	3.6649	-0.9649	6.43	0.46	-0.750			
0.3323	21265.16	3.6620	3.6621	-0.9764	6.43	0.46	-0.750			
0.3352	21451.33	3.6590	3.6589	-0.9930	6.43	0.46	-0.750			
0.3382	21641.65	3.6560	3.6559	-0.9986	6.44	0.47	-0.750			
0.3412	21834.76	3.6530	3.6529	-1.0056	6.44	0.47	-0.750			
0.3442	22027.92	3.6500	3.6501	-1.0112	6.45	0.48	-0.750			
0.3473	22228.35	3.6470	3.6471	-1.0345	6.45	0.48	-0.750			
0.3504	22426.36	3.6440	3.6439	-1.0400	6.45	0.48	-0.750			
0.3535	22623.46	3.6410	3.6409	-1.0458	6.45	0.48	-0.750			
0.3566	22824.69	3.6380	3.6380	-1.0472	6.45	0.48	-0.750			
0.3598	23028.71	3.6350	3.6350	-1.0703	6.45	0.48	-0.750			
0.3631	23238.28	3.6320	3.6320	-1.0793	6.45	0.48	-0.750			
0.3663	23445.03	3.6290	3.6287	-1.0873	6.46	0.49	-0.750			
0.3696	23653.11	3.6260	3.6262	-1.0912	6.46	0.49	-0.750			
0.3729	23864.25	3.6230	3.6230	-1.1102	6.46	0.49	-0.750			
0.3762	24079.83	3.6200	3.6200	-1.1207	6.46	0.49	-0.750			
0.3796	24296.34	3.6170	3.6169	-1.1346	6.46	0.49	-0.750			
0.3830	24510.99	3.6140	3.6141	-1.1394	6.46	0.49	-0.750			
0.3865	24737.13	3.6110	3.6110	-1.1661	6.46	0.49	-0.750			
0.3900	24962.24	3.6080	3.6078	-1.1704	6.45	0.48	-0.750			
0.3936	25189.76	3.6050	3.6049	-1.1750	6.45	0.48	-0.750			
0.3971	25414.59	3.6020	3.6019	-1.1893	6.45	0.48	-0.750			
0.4007	25644.15	3.5990	3.5990	-1.2008	6.46	0.49	-0.750			
0.4043	25876.32	3.5960	3.5958	-1.2098	6.46	0.49	-0.750			
0.4079	26106.47	3.5930	3.5933	-1.2145	6.47	0.50	-0.750			
0.4115	26337.89	3.5900	3.5900	-1.2762	6.47	0.50	-0.750	0.473	1.086	
0.4154	26584.24	3.5870	3.5869	-1.3099	6.47	0.50	-0.750			
0.4194	26843.49	3.5840	3.5837	-1.3339	6.47	0.50	-0.750			
0.4236	27108.30	3.5810	3.5808	-1.3563	6.47	0.50	-0.750			
0.4277	27373.37	3.5780	3.5783	-1.3584	6.47	0.50	-0.750			
0.4319	27640.97	3.5750	3.5750	-1.3668	6.47	0.50	-0.750			
0.4359	27898.69	3.5720	3.5718	-1.3458	6.47	0.50	-0.750			
0.4398	28145.24	3.5690	3.5690	-1.3205	6.47	0.50	-0.750			
0.4438	28403.57	3.5660	3.5661	-1.3481	6.47	0.50	-0.750			
0.4479	28664.61	3.5630	3.5630	-1.3524	6.47	0.50	-0.750			
0.4520	28928.59	3.5600	3.5599	-1.3648	6.47	0.50	-0.750			
0.4561	29188.16	3.5570	3.5570	-1.3733	6.47	0.50	-0.750			
0.4602	29449.74	3.5540	3.5539	-1.3835	6.47	0.50	-0.750			
0.4644	29719.91	3.5510	3.5510	-1.4054	6.47	0.50	-0.750			
0.4686	29991.28	3.5480	3.5480	-1.4216	6.47	0.50	-0.750			
0.4729	30265.25	3.5450	3.5450	-1.4353	6.47	0.50	-0.750			
0.4773	30545.82	3.5420	3.5420	-1.4557	6.47	0.50	-0.750			
0.4817	30826.38	3.5390	3.5390	-1.4636	6.47	0.50	-0.750			
0.4861	31108.65	3.5360	3.5359	-1.4733	6.47	0.50	-0.750			
0.4905	31391.53	3.5330	3.5330	-1.4865	6.47	0.50	-0.750			
0.4950	31677.89	3.5300	3.5300	-1.4995	6.47	0.50	-0.750			
0.4995	31967.14	3.5270	3.5269	-1.5127	6.47	0.50	-0.750			
0.5041	32259.39	3.5240	3.5241	-1.5361	6.48	0.51	-0.750			
0.5088	32560.19	3.5210	3.5210	-1.5331	6.48	0.51	-0.750			
0.5134	32855.69	3.5180	3.5181	-1.5433	6.48	0.51	-0.750			
0.5180	33153.83	3.5150	3.5150	-1.5448	6.49	0.52	-0.750			
0.5226	33448.29	3.5120	3.5119	-1.5456	6.49	0.52	-0.750			
0.5272	33743.98	3.5090	3.5089	-1.5482	6.49	0.52	-0.750			
0.5319	34040.98	3.5060	3.5059	-1.5463	6.49	0.52	-0.750			
0.5366	34341.51	3.5030	3.5029	-1.5576	6.50	0.53	-0.750			
0.5413	34643.79	3.5000	3.4998	-1.5597	6.50	0.53	-0.750			
0.5459	34940.24	3.4970	3.4971	-1.5447	6.51	0.54	-0.750			
0.5506	35237.30	3.4940	3.4941	-1.5344	6.51	0.54	-0.750			
0.5552	35533.97	3.4910	3.4909	-1.5460	6.52	0.55	-0.750			
0.5598	35826.69	3.4880	3.4880	-1.5379	6.52	0.55	-0.750			
0.5645	36126.52	3.4850	3.4849	-1.5430	6.53	0.56	-0.750			
0.5691	36423.42	3.4820	3.4821	-1.5485	6.53	0.56	-0.750			
0.5738	36721.58	3.4790	3.4789	-1.5390	6.54	0.57	-0.750			
0.5784	37016.29	3.4760	3.4759	-1.5365	6.54	0.57	-0.750			
0.5830	37309.92	3.4730	3.4732	-1.5206	6.55	0.58	-0.750			
0.5875	37600.09	3.4700	3.4699	-1.5030	6.56	0.59	-0.750			
0.5920	37887.72	3.4670	3.4669	-1.5036	6.56	0.59	-0.750			
0.5965	38175.39	3.4640	3.4640	-1.4875	6.57	0.60	-0.750			
0.6009	38460.74	3.4610	3.4609	-1.4781	6.59	0.62	-0.750			
0.6053	38742.31	3.4580	3.4580	-1.4692	6.60	0.63	-0.750			
0.6097	39023.11	3.4550	3.4549	-1.4467	6.61	0.64	-0.750			
0.6141	39303.93	3.4520	3.4520	-1.4404	6.62	0.65	-0.750			
0.6184	39577.24	3.4490	3.4490	-1.4211	6.63	0.66	-0.750			
0.6226	39848.59	3.4460	3.4460	-1.4026	6.64	0.67	-0.750			
0.6268	40116.25	3.4430	3.4429	-1.3778	6.66	0.69	-0.750			
0.6309	40375.19	3.4400	3.4400	-1.3605	6.66	0.69	-0.750			
0.6349	40635.59	3.4370	3.4371	-1.3349	6.68	0.71	-0.750			
0.6389	40892.61	3.4340	3.4339	-1.3168	6.69	0.72	-0.750			
0.6429	41142.85	3.4310	3.4309	-1.2872	6.70	0.73	-0.750			
0.6467	41387.08	3.4280	3.4281	-1.2679	6.71	0.74	-0.750			
0.6505	41629.49	3.4250	3.4249	-1.2447	6.73	0.76	-0.750			
0.6542	41866.23	3.4220	3.4219	-1.2194	6.74	0.77	-0.750			
0.6577	42094.83	3.4190	3.4191	-1.1891	6.75	0.78	-0.750			
0.6614	42326.80	3.4160	3.4160	-1.1732	6.76	0.79	-0.750			
0.6648	42549.68	3.4130	3.4129	-1.1463	6.77	0.80	-0.750			
0.6682	42767.08	3.4100	3.4100	-1.1162	6.78	0.81	-0.750			
0.6715	42975.93	3.4070	3.4071	-1.0884	6.79	0.82	-0.750			
0.6748	43184.81	3.4040	3.4039	-1.0658	6.81	0.84	-0.750			
0.6779	43386.08	3.4010	3.4010	-1.0391	6.83	0.86	-0.750			
0.6810	43581.39	3.3980	3.3980	-1.0100	6.84	0.87	-0.750			
0.6840	43776.00	3.3950	3.3951	-0.9920	6.85	0.88	-0.750			
0.6869	43963.68	3.3920	3.3920	-0.9663	6.87	0.90	-0.750			
0.6898	44148.00	3.3890	3.3890	-0.9386	6.88	0.91	-0.750			
0.6926	44324.06	3.3860	3.3860	-0.9074	6.90	0.93	-0.750			
0.6953	44496.43	3.3830	3.3832	-0.8851	6.91	0.94	-0.750			
0.6979	44663.29	3.3800	3.3799	-0.8593	6.92	0.95	-0.750			
0.7004	44825.36	3.3770	3.3769	-0.8403	6.93	0.96	-0.750			
0.7029	44983.63	3.3740	3.3740	-0.8172	6.95	0.98	-0.750			
0.7053	45138.70	3.3710	3.3710	-0.7967	6.96	0.99	-0.750			
0.7077	45292.09	3.3680	3.3681	-0.7820	6.97	1.00	-0.750			
0.7100	45439.87	3.3650	3.3649	-0.7630	6.98	1.01	-0.750			
0.7122	45583.43	3.3620	3.3620	-0.7428	6.99	1.02	-0.750			
0.7145	45724.98	3.3590	3.3590	-0.7224	7.00	1.03	-0.750			
0.7166	45860.83	3.3560	3.3561	-0.7009	7.01	1.04	-0.750			
0.7187	45996.39	3.3530	3.3530	-0.6806	7.02	1.05	-0.750			
0.7207	46124.82	3.3500	3.3500	-0.6528	7.03	1.06	-0.750			
0.7226	46247.50	3.3470	3.3470	-0.6263	7.04	1.07	-0.750			
