Ah_balance (normalized)	Ah_balance (mAh)	Voltage - fit (V)	Voltage -  interpolate (V)	dQ/dV (1/V)	Temperature (°C)	Temperature - diff (°C)	Current (C)	R_DC 0ms (mOhm)	R_DC 50ms (mOhm)	R_DC 50 ms PEC (mOhm)
0.1811	11590.44	4.0780	4.0780	0.8168	7.26	1.28	0.750			
0.1835	11741.69	4.0750	4.0751	0.7942	7.26	1.28	0.750			
0.1858	11892.48	4.0720	4.0721	0.7931	7.25	1.27	0.750			
0.1882	12045.03	4.0690	4.0688	0.7938	7.25	1.27	0.750			
0.1906	12195.72	4.0660	4.0660	0.7891	7.25	1.27	0.750			
0.1930	12349.54	4.0630	4.0630	0.7865	7.24	1.26	0.750			
0.1953	12501.72	4.0600	4.0601	0.7929	7.24	1.26	0.750			
0.1977	12652.53	4.0570	4.0571	0.7926	7.23	1.25	0.750			
0.2001	12803.51	4.0540	4.0538	0.7964	7.23	1.25	0.750			
0.2024	12956.50	4.0510	4.0511	0.8019	7.23	1.25	0.750			
0.2049	13113.19	4.0480	4.0480	0.8013	7.22	1.24	0.750			
0.2073	13267.28	4.0450	4.0450	0.8099	7.22	1.24	0.750			
0.2097	13423.99	4.0420	4.0421	0.8204	7.22	1.24	0.750			
0.2122	13580.63	4.0390	4.0389	0.8204	7.21	1.23	0.750			
0.2147	13738.97	4.0360	4.0361	0.8225	7.21	1.23	0.750			
0.2171	13897.42	4.0330	4.0331	0.8230	7.20	1.22	0.750			
0.2196	14055.97	4.0300	4.0301	0.8273	7.20	1.22	0.750			
0.2221	14217.35	4.0270	4.0270	0.8299	7.20	1.22	0.750			
0.2246	14373.20	4.0240	4.0240	0.8272	7.19	1.21	0.750			
0.2270	14531.17	4.0210	4.0210	0.8343	7.19	1.21	0.750			
0.2296	14694.84	4.0180	4.0179	0.8339	7.18	1.20	0.750			
0.2321	14854.85	4.0150	4.0150	0.8411	7.18	1.20	0.750			
0.2347	15017.77	4.0120	4.0121	0.8439	7.18	1.20	0.750			
0.2372	15180.40	4.0090	4.0090	0.8402	7.17	1.19	0.750			
0.2397	15341.65	4.0060	4.0062	0.8422	7.17	1.19	0.750			
0.2422	15503.92	4.0030	4.0030	0.8284	7.16	1.18	0.750			
0.2447	15661.61	4.0000	4.0000	0.8329	7.16	1.18	0.750			
0.2472	15820.74	3.9970	3.9970	0.8428	7.16	1.18	0.750			
0.2497	15979.61	3.9940	3.9941	0.8510	7.15	1.17	0.750			
0.2523	16144.83	3.9910	3.9911	0.8570	7.15	1.17	0.750			
0.2549	16314.53	3.9880	3.9880	0.8529	7.14	1.16	0.750			
0.2574	16476.28	3.9850	3.9851	0.8590	7.14	1.16	0.750			
0.2601	16643.38	3.9820	3.9821	0.8651	7.14	1.16	0.750			
0.2626	16805.60	3.9790	3.9788	0.8679	7.13	1.15	0.750			
0.2652	16972.06	3.9760	3.9761	0.8729	7.12	1.14	0.750			
0.2678	17139.53	3.9730	3.9731	0.8729	7.12	1.14	0.750			
0.2705	17310.64	3.9700	3.9701	0.8811	7.11	1.13	0.750			
0.2731	17481.25	3.9670	3.9671	0.8840	7.10	1.12	0.750			
0.2758	17650.09	3.9640	3.9636	0.8868	7.09	1.11	0.750			
0.2785	17824.10	3.9610	3.9610	0.8847	7.09	1.11	0.750			
0.2811	17990.73	3.9580	3.9580	0.8947	7.09	1.11	0.750			
0.2838	18164.17	3.9550	3.9551	0.9057	7.08	1.10	0.750			
0.2865	18338.78	3.9520	3.9522	0.9147	7.08	1.10	0.750			
0.2893	18513.16	3.9490	3.9488	0.9209	7.08	1.10	0.750			
0.2921	18691.48	3.9460	3.9462	0.9180	7.07	1.09	0.750			
0.2948	18868.09	3.9430	3.9430	0.9301	7.06	1.08	0.750			
0.2976	19047.96	3.9400	3.9401	0.9368	7.06	1.08	0.750			
0.3004	19227.93	3.9370	3.9365	0.9360	7.05	1.07	0.750			
0.3033	19409.86	3.9340	3.9342	0.9388	7.04	1.06	0.750			
0.3061	19589.72	3.9310	3.9311	0.9470	7.04	1.06	0.750			
0.3089	19772.41	3.9280	3.9280	0.9562	7.03	1.05	0.750			
0.3118	19953.94	3.9250	3.9250	0.9579	7.02	1.04	0.750			
0.3147	20141.66	3.9220	3.9220	0.9647	7.02	1.04	0.750			
0.3176	20328.25	3.9190	3.9190	0.9802	7.01	1.03	0.750			
0.3206	20518.52	3.9160	3.9160	0.9875	7.00	1.02	0.750			
0.3236	20710.00	3.9130	3.9131	0.9997	6.99	1.01	0.750			
0.3266	20902.86	3.9100	3.9099	0.9988	6.99	1.01	0.750			
0.3296	21093.48	3.9070	3.9071	1.0111	6.98	1.00	0.750			
0.3326	21285.96	3.9040	3.9040	1.0224	6.97	0.99	0.750			
0.3357	21484.86	3.9010	3.9011	1.0397	6.97	0.99	0.750			
0.3389	21687.21	3.8980	3.8978	1.0412	6.96	0.98	0.750			
0.3420	21889.43	3.8950	3.8950	1.0548	6.95	0.97	0.750			
0.3452	22092.61	3.8920	3.8921	1.0617	6.94	0.96	0.750			
0.3484	22297.39	3.8890	3.8890	1.0759	6.94	0.96	0.750			
0.3516	22505.41	3.8860	3.8859	1.0694	6.93	0.95	0.750			
0.3549	22711.51	3.8830	3.8830	1.0958	6.92	0.94	0.750			
0.3582	22922.51	3.8800	3.8801	1.1149	6.91	0.93	0.750			
0.3615	23139.13	3.8770	3.8770	1.1342	6.90	0.92	0.750			
0.3650	23357.59	3.8740	3.8743	1.1468	6.88	0.90	0.750			
0.3684	23579.88	3.8710	3.8711	1.1649	6.87	0.89	0.750			
0.3720	23806.52	3.8680	3.8680	1.1745	6.86	0.88	0.750			
0.3756	24036.01	3.8650	3.8649	1.1842	6.85	0.87	0.750			
0.3790	24258.81	3.8620	3.8622	1.2038	6.84	0.86	0.750			
0.3827	24490.29	3.8590	3.8591	1.2270	6.83	0.85	0.750			
0.3864	24732.33	3.8560	3.8558	1.2322	6.82	0.84	0.750			
0.3901	24969.16	3.8530	3.8529	1.2510	6.81	0.83	0.750			
0.3939	25209.17	3.8500	3.8503	1.2819	6.80	0.82	0.750			
0.3978	25459.48	3.8470	3.8470	1.3063	6.78	0.80	0.750			
0.4017	25710.60	3.8440	3.8437	1.3189	6.77	0.79	0.750			
0.4056	25959.60	3.8410	3.8412	1.3440	6.75	0.77	0.750			
0.4097	26220.14	3.8380	3.8381	1.3817	6.74	0.76	0.750			
0.4139	26490.88	3.8350	3.8349	1.4320	6.73	0.75	0.750	0.366	0.915	
0.4183	26770.00	3.8320	3.8322	1.4409	6.71	0.73	0.750			
0.4228	27059.04	3.8290	3.8291	1.4728	6.70	0.72	0.750			
0.4273	27345.93	3.8260	3.8261	1.4955	6.68	0.70	0.750			
0.4317	27630.17	3.8230	3.8229	1.5099	6.67	0.69	0.750			
0.4362	27916.07	3.8200	3.8203	1.5224	6.66	0.68	0.750			
0.4407	28204.26	3.8170	3.8172	1.5678	6.64	0.66	0.750			
0.4455	28514.68	3.8140	3.8138	1.6165	6.63	0.65	0.750			
0.4505	28832.89	3.8110	3.8110	1.6476	6.61	0.63	0.750			
0.4555	29152.92	3.8080	3.8083	1.6780	6.59	0.61	0.750			
0.4607	29486.11	3.8050	3.8048	1.7071	6.58	0.60	0.750			
0.4658	29808.52	3.8020	3.8020	1.7405	6.56	0.58	0.750			
0.4710	30143.59	3.7990	3.7990	1.7551	6.54	0.56	0.750			
0.4764	30487.53	3.7960	3.7962	1.8470	6.53	0.55	0.750			
0.4819	30843.38	3.7930	3.7932	1.8564	6.50	0.52	0.750			
0.4876	31204.16	3.7900	3.7899	1.9008	6.47	0.49	0.750			
0.4934	31577.08	3.7870	3.7872	1.9701	6.45	0.47	0.750			
0.4993	31957.44	3.7840	3.7838	1.9467	6.43	0.45	0.750			
0.5053	32338.43	3.7810	3.7814	1.9559	6.42	0.44	0.750			
0.5113	32723.44	3.7780	3.7778	2.0015	6.41	0.43	0.750			
0.5171	33096.79	3.7750	3.7749	2.0603	6.39	0.41	0.750			
0.5233	33492.31	3.7720	3.7717	2.0823	6.36	0.38	0.750			
0.5298	33910.37	3.7690	3.7690	2.1159	6.34	0.36	0.750			
0.5361	34313.39	3.7660	3.7660	2.1440	6.32	0.34	0.750			
0.5427	34731.99	3.7630	3.7631	2.1584	6.30	0.32	0.750			
0.5491	35139.23	3.7600	3.7600	2.2090	6.28	0.30	0.750			
0.5558	35568.73	3.7570	3.7570	2.2051	6.25	0.27	0.750			
0.5625	36001.91	3.7540	3.7540	2.2400	6.23	0.25	0.750			
0.5695	36446.04	3.7510	3.7505	2.2892	6.21	0.23	0.750			
0.5763	36883.45	3.7480	3.7480	2.2945	6.19	0.21	0.750			
0.5830	37314.66	3.7450	3.7452	2.3421	6.17	0.19	0.750			
0.5903	37781.24	3.7420	3.7419	2.4531	6.14	0.16	0.750			
0.5978	38257.57	3.7390	3.7389	2.5859	6.12	0.14	0.750			
0.6059	38775.97	3.7360	3.7359	2.6148	6.09	0.11	0.750			
0.6137	39274.95	3.7330	3.7333	2.7821	6.07	0.09	0.750			
0.6222	39820.33	3.7300	3.7299	2.8107	6.06	0.08	0.750			
0.6308	40371.73	3.7270	3.7270	2.8548	6.03	0.05	0.750			
0.6391	40902.46	3.7240	3.7241	2.7547	6.01	0.03	0.750			
0.6477	41450.56	3.7210	3.7210	2.7970	5.99	0.01	0.750			
0.6559	41979.78	3.7180	3.7182	2.6855	5.98	-0.00	0.750			
0.6637	42474.91	3.7150	3.7150	2.4941	5.97	-0.01	0.750			
0.6710	42946.98	3.7120	3.7120	2.2858	5.96	-0.02	0.750			
0.6779	43382.74	3.7090	3.7089	2.1132	5.95	-0.03	0.750			
0.6837	43756.05	3.7060	3.7058	1.8421	5.95	-0.03	0.750			
0.6888	44083.19	3.7030	3.7031	1.6165	5.95	-0.03	0.750			
0.6931	44361.50	3.7000	3.7001	1.3935	5.95	-0.03	0.750			
0.6969	44599.44	3.6970	3.6970	1.2335	5.95	-0.03	0.750			
0.7002	44812.56	3.6940	3.6937	1.0950	5.95	-0.03	0.750			
0.7032	45004.08	3.6910	3.6910	0.9916	5.95	-0.03	0.750			
0.7059	45180.44	3.6880	3.6881	0.9433	5.95	-0.03	0.750			
0.7087	45353.61	3.6850	3.6851	0.8995	5.95	-0.03	0.750			
0.7114	45528.27	3.6820	3.6817	0.8522	5.95	-0.03	0.750			
0.7139	45691.59	3.6790	3.6788	0.7911	5.95	-0.03	0.750			
0.7162	45839.53	3.6760	3.6766	0.7303	5.96	-0.02	0.750			
0.7184	45975.46	3.6730	3.6733	0.6774	5.96	-0.02	0.750			
0.7203	46096.63	3.6700	3.6695	0.6070	5.97	-0.01	0.750			
0.7218	46193.62	3.6670	3.6670	0.5346	5.97	-0.01	0.750			
0.7233	46293.61	3.6640	3.6641	0.5053	5.97	-0.01	0.750			
0.7249	46393.11	3.6610	3.6610	0.4799	5.98	-0.00	0.750			
0.7263	46480.78	3.6580	3.6580	0.4379	5.98	0.00	0.750			
0.7275	46560.41	3.6550	3.6551	0.3960	5.98	0.00	0.750			
0.7286	46632.47	3.6520	3.6521	0.3582	5.99	0.01	0.750			
0.7297	46697.86	3.6490	3.6489	0.3198	5.99	0.01	0.750			
0.7305	46753.76	3.6460	3.6459	0.2800	5.99	0.01	0.750			
0.7313	46804.93	3.6430	3.6429	0.2427	5.99	0.01	0.750			
0.7320	46847.97	3.6400	3.6400	0.2052	6.00	0.02	0.750			
0.7326	46884.63	3.6370	3.6371	0.1685	6.00	0.02	0.750			
0.7330	46914.29	3.6340	3.6341	0.1303	6.00	0.02	0.750			
0.7334	46935.97	3.6310	3.6312	0.0890	6.00	0.02	0.750			
0.7336	46949.18	3.6280	3.6290	0.0462	6.00	0.02	0.750			
0.7337	46953.94	3.6250	3.6279	0.0034	6.00	0.02	0.750			
