Ah_balance (normalized)	Ah_balance (mAh)	Voltage - fit (V)	Voltage -  interpolate (V)	dQ/dV (1/V)	Temperature (°C)	Temperature - diff (°C)	Current (C)	R_DC 0ms (mOhm)	R_DC 50ms (mOhm)	R_DC 50 ms PEC (mOhm)
0.0938	6004.64	4.0050	4.0033	-0.0396	5.98	0.01	-0.750			
0.0940	6016.22	4.0020	4.0014	-0.0755	5.98	0.01	-0.750			
0.0943	6035.15	3.9990	3.9986	-0.1068	5.98	0.01	-0.750			
0.0947	6058.25	3.9960	3.9959	-0.1341	5.98	0.01	-0.750			
0.0951	6086.97	3.9930	3.9930	-0.1606	5.98	0.01	-0.750			
0.0956	6120.57	3.9900	3.9901	-0.1862	5.98	0.01	-0.750			
0.0963	6160.22	3.9870	3.9869	-0.2119	5.98	0.01	-0.750			
0.0969	6202.80	3.9840	3.9841	-0.2354	5.98	0.01	-0.750			
0.0977	6250.03	3.9810	3.9811	-0.2587	5.97	0.00	-0.750			
0.0985	6302.05	3.9780	3.9780	-0.2813	5.97	0.00	-0.750			
0.0994	6358.55	3.9750	3.9750	-0.3038	5.97	0.00	-0.750			
0.1003	6418.19	3.9720	3.9720	-0.3273	5.97	0.00	-0.750			
0.1013	6483.53	3.9690	3.9691	-0.3504	5.97	-0.00	-0.750			
0.1024	6552.91	3.9660	3.9659	-0.3749	5.97	-0.00	-0.750			
0.1035	6627.13	3.9630	3.9630	-0.3978	5.97	-0.00	-0.750			
0.1048	6706.17	3.9600	3.9600	-0.4212	5.96	-0.01	-0.750			
0.1061	6790.67	3.9570	3.9570	-0.4428	5.96	-0.01	-0.750			
0.1075	6877.60	3.9540	3.9540	-0.4632	5.96	-0.01	-0.750			
0.1089	6968.05	3.9510	3.9510	-0.4805	5.96	-0.01	-0.750			
0.1104	7062.53	3.9480	3.9480	-0.4987	5.95	-0.02	-0.750			
0.1119	7158.72	3.9450	3.9450	-0.5172	5.95	-0.02	-0.750			
0.1134	7259.97	3.9420	3.9421	-0.5359	5.95	-0.02	-0.750			
0.1151	7365.17	3.9390	3.9389	-0.5536	5.95	-0.02	-0.750			
0.1168	7473.41	3.9360	3.9361	-0.5708	5.95	-0.02	-0.750			
0.1185	7585.02	3.9330	3.9329	-0.5854	5.95	-0.02	-0.750			
0.1203	7699.80	3.9300	3.9300	-0.6041	5.94	-0.03	-0.750			
0.1222	7818.29	3.9270	3.9269	-0.6115	5.94	-0.03	-0.750			
0.1240	7936.56	3.9240	3.9240	-0.6194	5.94	-0.03	-0.750			
0.1259	8056.85	3.9210	3.9212	-0.6264	5.94	-0.03	-0.750			
0.1278	8177.29	3.9180	3.9178	-0.6355	5.94	-0.03	-0.750			
0.1297	8299.09	3.9150	3.9150	-0.6438	5.94	-0.03	-0.750			
0.1316	8422.49	3.9120	3.9118	-0.6542	5.94	-0.03	-0.750			
0.1336	8550.73	3.9090	3.9090	-0.6646	5.94	-0.03	-0.750			
0.1356	8680.84	3.9060	3.9060	-0.6695	5.94	-0.03	-0.750			
0.1377	8811.00	3.9030	3.9031	-0.6713	5.94	-0.03	-0.750			
0.1397	8940.04	3.9000	3.8999	-0.6729	5.94	-0.03	-0.750			
0.1417	9066.51	3.8970	3.8970	-0.6742	5.94	-0.03	-0.750			
0.1437	9195.38	3.8940	3.8940	-0.6842	5.94	-0.03	-0.750			
0.1457	9326.59	3.8910	3.8909	-0.6877	5.95	-0.02	-0.750			
0.1478	9461.99	3.8880	3.8880	-0.6953	5.95	-0.02	-0.750			
0.1499	9596.34	3.8850	3.8851	-0.6997	5.95	-0.02	-0.750			
0.1521	9732.03	3.8820	3.8821	-0.7051	5.95	-0.02	-0.750			
0.1542	9867.08	3.8790	3.8789	-0.7056	5.96	-0.01	-0.750			
0.1563	10001.01	3.8760	3.8760	-0.7060	5.96	-0.01	-0.750			
0.1584	10137.50	3.8730	3.8730	-0.7083	5.96	-0.01	-0.750			
0.1606	10275.96	3.8700	3.8700	-0.7120	5.97	-0.00	-0.750			
0.1627	10411.92	3.8670	3.8671	-0.7114	5.97	-0.00	-0.750			
0.1648	10547.84	3.8640	3.8640	-0.7128	5.97	0.00	-0.750			
0.1670	10684.95	3.8610	3.8609	-0.7129	5.98	0.01	-0.750			
0.1691	10820.73	3.8580	3.8580	-0.7199	5.98	0.01	-0.750			
0.1713	10960.75	3.8550	3.8550	-0.7202	5.98	0.01	-0.750			
0.1735	11102.15	3.8520	3.8519	-0.7234	5.99	0.02	-0.750			
0.1756	11241.02	3.8490	3.8493	-0.7206	5.99	0.02	-0.750			
0.1778	11378.14	3.8460	3.8460	-0.7171	6.00	0.03	-0.750			
0.1799	11514.19	3.8430	3.8430	-0.7207	6.00	0.03	-0.750			
0.1821	11651.35	3.8400	3.8400	-0.7213	6.01	0.04	-0.750			
0.1842	11791.34	3.8370	3.8369	-0.7238	6.02	0.05	-0.750			
0.1864	11931.55	3.8340	3.8340	-0.7210	6.02	0.05	-0.750			
0.1886	12070.76	3.8310	3.8311	-0.7221	6.03	0.06	-0.750			
0.1908	12208.17	3.8280	3.8280	-0.7239	6.04	0.07	-0.750			
0.1929	12345.52	3.8250	3.8249	-0.7248	6.04	0.07	-0.750			
0.1951	12484.61	3.8220	3.8220	-0.7275	6.05	0.08	-0.750			
0.1973	12625.37	3.8190	3.8190	-0.7327	6.05	0.08	-0.750			
0.1995	12767.28	3.8160	3.8160	-0.7355	6.06	0.09	-0.750			
0.2017	12910.88	3.8130	3.8130	-0.7367	6.06	0.09	-0.750			
0.2039	13051.30	3.8100	3.8100	-0.7330	6.07	0.10	-0.750			
0.2061	13190.79	3.8070	3.8071	-0.7337	6.07	0.10	-0.750			
0.2083	13332.13	3.8040	3.8040	-0.7348	6.08	0.11	-0.750			
0.2105	13473.38	3.8010	3.8009	-0.7359	6.08	0.11	-0.750			
0.2127	13614.84	3.7980	3.7981	-0.7368	6.09	0.12	-0.750			
0.2149	13756.56	3.7950	3.7950	-0.7337	6.10	0.13	-0.750			
0.2172	13897.76	3.7920	3.7920	-0.7366	6.10	0.13	-0.750			
0.2194	14039.40	3.7890	3.7890	-0.7390	6.11	0.14	-0.750			
0.2216	14180.19	3.7860	3.7859	-0.7389	6.12	0.15	-0.750			
0.2238	14323.71	3.7830	3.7830	-0.7446	6.12	0.15	-0.750			
0.2260	14467.04	3.7800	3.7801	-0.7483	6.13	0.16	-0.750			
0.2283	14611.72	3.7770	3.7769	-0.7499	6.14	0.17	-0.750			
0.2306	14756.21	3.7740	3.7740	-0.7537	6.15	0.18	-0.750			
0.2328	14898.06	3.7710	3.7711	-0.7528	6.15	0.18	-0.750			
0.2351	15045.72	3.7680	3.7679	-0.7617	6.16	0.19	-0.750			
0.2374	15191.16	3.7650	3.7649	-0.7629	6.17	0.20	-0.750			
0.2397	15338.00	3.7620	3.7619	-0.7649	6.17	0.20	-0.750			
0.2420	15484.89	3.7590	3.7590	-0.7705	6.18	0.21	-0.750			
0.2443	15634.61	3.7560	3.7560	-0.7724	6.19	0.22	-0.750			
0.2466	15782.62	3.7530	3.7530	-0.7703	6.19	0.22	-0.750			
0.2489	15930.70	3.7500	3.7500	-0.7743	6.20	0.23	-0.750			
0.2512	16079.17	3.7470	3.7471	-0.7806	6.20	0.23	-0.750			
0.2536	16227.45	3.7440	3.7440	-0.7865	6.20	0.23	-0.750			
0.2559	16380.25	3.7410	3.7410	-0.7937	6.21	0.24	-0.750			
0.2583	16533.39	3.7380	3.7379	-0.7983	6.21	0.24	-0.750			
0.2608	16688.56	3.7350	3.7350	-0.8076	6.22	0.25	-0.750			
0.2632	16844.58	3.7320	3.7322	-0.8126	6.22	0.25	-0.750			
0.2656	17000.01	3.7290	3.7290	-0.8146	6.23	0.26	-0.750			
0.2681	17157.34	3.7260	3.7260	-0.8170	6.23	0.26	-0.750			
0.2705	17314.98	3.7230	3.7229	-0.8212	6.24	0.27	-0.750			
0.2730	17473.57	3.7200	3.7200	-0.8276	6.24	0.27	-0.750			
0.2755	17631.45	3.7170	3.7172	-0.8321	6.25	0.28	-0.750			
0.2780	17790.50	3.7140	3.7139	-0.8377	6.25	0.28	-0.750			
0.2805	17952.92	3.7110	3.7109	-0.8498	6.26	0.29	-0.750			
0.2831	18117.04	3.7080	3.7079	-0.8532	6.26	0.29	-0.750			
0.2857	18283.94	3.7050	3.7050	-0.8641	6.27	0.30	-0.750			
0.2883	18449.55	3.7020	3.7023	-0.8630	6.27	0.30	-0.750			
0.2909	18614.69	3.6990	3.6989	-0.8690	6.28	0.31	-0.750			
0.2935	18781.29	3.6960	3.6960	-0.8726	6.28	0.31	-0.750			
0.2960	18946.80	3.6930	3.6930	-0.8768	6.29	0.32	-0.750			
0.2987	19118.69	3.6900	3.6899	-0.8935	6.30	0.33	-0.750			
0.3014	19290.90	3.6870	3.6871	-0.8993	6.30	0.33	-0.750			
0.3041	19463.84	3.6840	3.6839	-0.9138	6.31	0.34	-0.750			
0.3069	19640.96	3.6810	3.6810	-0.9237	6.31	0.34	-0.750			
0.3097	19819.52	3.6780	3.6779	-0.9276	6.31	0.34	-0.750			
0.3125	19999.78	3.6750	3.6752	-0.9366	6.32	0.35	-0.750			
0.3153	20179.05	3.6720	3.6720	-0.9464	6.32	0.35	-0.750			
0.3182	20362.17	3.6690	3.6690	-0.9479	6.32	0.35	-0.750			
0.3210	20544.60	3.6660	3.6659	-0.9510	6.33	0.36	-0.750			
0.3238	20726.04	3.6630	3.6630	-0.9553	6.33	0.36	-0.750			
0.3268	20912.17	3.6600	3.6600	-0.9663	6.33	0.36	-0.750			
0.3297	21098.37	3.6570	3.6570	-0.9786	6.33	0.36	-0.750			
0.3326	21288.15	3.6540	3.6540	-0.9812	6.33	0.36	-0.750			
0.3356	21475.99	3.6510	3.6510	-0.9869	6.33	0.36	-0.750			
0.3386	21668.32	3.6480	3.6482	-1.0019	6.33	0.36	-0.750			
0.3416	21860.51	3.6450	3.6450	-1.0081	6.34	0.37	-0.750			
0.3446	22053.91	3.6420	3.6419	-1.0165	6.34	0.37	-0.750			
0.3476	22248.19	3.6390	3.6390	-1.0259	6.35	0.38	-0.750			
0.3507	22447.81	3.6360	3.6361	-1.0389	6.35	0.38	-0.750			
0.3539	22648.49	3.6330	3.6330	-1.0510	6.36	0.39	-0.750			
0.3570	22851.07	3.6300	3.6300	-1.0579	6.36	0.39	-0.750			
0.3602	23054.92	3.6270	3.6269	-1.0689	6.37	0.40	-0.750			
0.3635	23260.90	3.6240	3.6241	-1.0796	6.37	0.40	-0.750			
0.3667	23469.06	3.6210	3.6210	-1.0903	6.38	0.41	-0.750			
0.3700	23680.33	3.6180	3.6180	-1.0988	6.38	0.41	-0.750			
0.3733	23892.97	3.6150	3.6150	-1.1066	6.39	0.42	-0.750			
0.3766	24105.08	3.6120	3.6120	-1.1170	6.39	0.42	-0.750			
0.3800	24321.46	3.6090	3.6091	-1.1261	6.39	0.42	-0.750			
0.3834	24539.11	3.6060	3.6059	-1.1291	6.38	0.41	-0.750			
0.3868	24756.29	3.6030	3.6030	-1.1333	6.38	0.41	-0.750			
0.3902	24975.11	3.6000	3.6000	-1.1393	6.39	0.42	-0.750			
0.3937	25194.92	3.5970	3.5970	-1.1540	6.39	0.42	-0.750			
0.3972	25417.65	3.5940	3.5939	-1.1561	6.40	0.43	-0.750			
0.4006	25638.00	3.5910	3.5910	-1.1616	6.41	0.44	-0.750			
0.4041	25864.82	3.5880	3.5881	-1.1806	6.41	0.44	-0.750	0.468	1.065	
0.4077	26092.70	3.5850	3.5849	-1.1904	6.41	0.44	-0.750			
0.4113	26320.83	3.5820	3.5819	-1.2013	6.41	0.44	-0.750			
0.4149	26551.22	3.5790	3.5790	-1.2127	6.41	0.44	-0.750			
0.4186	26787.51	3.5760	3.5760	-1.2279	6.42	0.45	-0.750			
0.4223	27025.58	3.5730	3.5730	-1.2408	6.42	0.45	-0.750			
0.4260	27264.14	3.5700	3.5700	-1.2475	6.43	0.46	-0.750			
0.4298	27508.10	3.5670	3.5670	-1.2553	6.43	0.46	-0.750			
0.4336	27748.64	3.5640	3.5639	-1.2624	6.43	0.46	-0.750			
0.4373	27990.23	3.5610	3.5613	-1.2775	6.43	0.46	-0.750			
0.4412	28236.33	3.5580	3.5578	-1.2885	6.44	0.47	-0.750			
0.4451	28484.71	3.5550	3.5549	-1.3015	6.44	0.47	-0.750			
0.4490	28732.92	3.5520	3.5522	-1.3183	6.45	0.48	-0.750			
0.4530	28989.41	3.5490	3.5489	-1.3322	6.45	0.48	-0.750			
0.4570	29251.03	3.5460	3.5459	-1.3536	6.45	0.48	-0.750			
0.4611	29509.65	3.5430	3.5430	-1.3710	6.45	0.48	-0.750			
0.4652	29772.95	3.5400	3.5400	-1.3750	6.45	0.48	-0.750			
0.4694	30042.68	3.5370	3.5370	-1.3943	6.46	0.49	-0.750			
0.4736	30311.53	3.5340	3.5339	-1.4072	6.47	0.50	-0.750			
0.4779	30582.88	3.5310	3.5309	-1.4111	6.47	0.50	-0.750			
0.4821	30855.52	3.5280	3.5279	-1.4272	6.48	0.51	-0.750			
0.4864	31128.61	3.5250	3.5249	-1.4372	6.49	0.52	-0.750			
0.4907	31402.68	3.5220	3.5219	-1.4527	6.49	0.52	-0.750			
0.4951	31687.87	3.5190	3.5189	-1.4699	6.50	0.53	-0.750			
0.4995	31970.38	3.5160	3.5160	-1.4857	6.51	0.54	-0.750			
0.5041	32259.72	3.5130	3.5129	-1.4828	6.52	0.55	-0.750			
0.5086	32548.42	3.5100	3.5099	-1.5080	6.52	0.55	-0.750			
0.5131	32840.01	3.5070	3.5072	-1.5041	6.53	0.56	-0.750			
0.5177	33129.63	3.5040	3.5039	-1.4979	6.54	0.57	-0.750			
0.5221	33416.65	3.5010	3.5009	-1.4994	6.56	0.59	-0.750			
0.5266	33704.91	3.4980	3.4981	-1.4961	6.57	0.60	-0.750			
0.5312	33994.56	3.4950	3.4949	-1.4954	6.59	0.62	-0.750			
0.5356	34276.63	3.4920	3.4920	-1.4975	6.60	0.63	-0.750			
0.5401	34563.71	3.4890	3.4890	-1.5005	6.62	0.65	-0.750			
0.5447	34857.99	3.4860	3.4859	-1.5188	6.63	0.66	-0.750			
0.5492	35151.71	3.4830	3.4830	-1.5155	6.65	0.68	-0.750			
0.5538	35442.30	3.4800	3.4800	-1.5131	6.66	0.69	-0.750			
0.5583	35733.19	3.4770	3.4771	-1.5081	6.68	0.71	-0.750			
0.5629	36022.57	3.4740	3.4741	-1.5100	6.69	0.72	-0.750			
0.5674	36311.72	3.4710	3.4709	-1.4958	6.71	0.74	-0.750			
0.5718	36596.03	3.4680	3.4680	-1.5022	6.73	0.76	-0.750			
0.5764	36886.88	3.4650	3.4652	-1.4848	6.74	0.77	-0.750			
0.5808	37173.20	3.4620	3.4619	-1.4863	6.76	0.79	-0.750			
0.5853	37458.02	3.4590	3.4590	-1.4788	6.78	0.81	-0.750			
0.5897	37739.17	3.4560	3.4560	-1.4670	6.80	0.83	-0.750			
0.5941	38023.29	3.4530	3.4528	-1.4650	6.82	0.85	-0.750			
0.5985	38303.15	3.4500	3.4499	-1.4608	6.84	0.87	-0.750			
0.6028	38582.38	3.4470	3.4470	-1.4502	6.86	0.89	-0.750			
0.6072	38863.81	3.4440	3.4439	-1.4397	6.88	0.91	-0.750			
0.6115	39136.39	3.4410	3.4410	-1.4207	6.90	0.93	-0.750			
0.6158	39409.58	3.4380	3.4380	-1.3966	6.92	0.95	-0.750			
0.6200	39679.74	3.4350	3.4349	-1.3745	6.94	0.97	-0.750			
0.6240	39939.17	3.4320	3.4320	-1.3556	6.96	0.99	-0.750			
0.6281	40195.88	3.4290	3.4290	-1.3237	6.98	1.01	-0.750			
0.6321	40451.83	3.4260	3.4259	-1.3018	6.99	1.02	-0.750			
0.6359	40697.16	3.4230	3.4229	-1.2716	7.00	1.03	-0.750			
0.6396	40936.56	3.4200	3.4201	-1.2386	7.02	1.05	-0.750			
0.6434	41176.98	3.4170	3.4169	-1.2225	7.04	1.07	-0.750			
0.6470	41406.75	3.4140	3.4140	-1.1936	7.07	1.10	-0.750			
0.6504	41628.26	3.4110	3.4111	-1.1688	7.09	1.12	-0.750			
0.6540	41855.86	3.4080	3.4080	-1.1496	7.11	1.14	-0.750			
0.6574	42076.40	3.4050	3.4049	-1.1222	7.13	1.16	-0.750			
0.6608	42289.08	3.4020	3.4020	-1.0908	7.16	1.19	-0.750			
0.6640	42497.02	3.3990	3.3991	-1.0671	7.18	1.21	-0.750			
0.6671	42696.99	3.3960	3.3960	-1.0380	7.19	1.22	-0.750			
0.6702	42891.62	3.3930	3.3929	-1.0068	7.21	1.24	-0.750			
0.6731	43080.89	3.3900	3.3900	-0.9811	7.23	1.26	-0.750			
0.6761	43271.19	3.3870	3.3871	-0.9673	7.24	1.27	-0.750			
0.6790	43455.76	3.3840	3.3839	-0.9422	7.26	1.29	-0.750			
0.6818	43633.03	3.3810	3.3810	-0.9155	7.28	1.31	-0.750			
0.6845	43805.72	3.3780	3.3780	-0.8835	7.29	1.32	-0.750			
0.6871	43973.59	3.3750	3.3751	-0.8643	7.31	1.34	-0.750			
0.6896	44136.60	3.3720	3.3719	-0.8424	7.32	1.35	-0.750			
0.6921	44293.01	3.3690	3.3690	-0.8267	7.34	1.37	-0.750			
0.6946	44451.41	3.3660	3.3660	-0.8074	7.36	1.39	-0.750			
0.6970	44606.01	3.3630	3.3629	-0.7867	7.37	1.40	-0.750			
0.6993	44756.21	3.3600	3.3599	-0.7655	7.39	1.42	-0.750			
0.7016	44902.15	3.3570	3.3571	-0.7468	7.41	1.44	-0.750			
0.7038	45041.49	3.3540	3.3539	-0.7237	7.42	1.45	-0.750			
0.7059	45176.55	3.3510	3.3510	-0.7051	7.44	1.47	-0.750			
0.7079	45307.41	3.3480	3.3480	-0.6887	7.45	1.48	-0.750			
0.7100	45440.70	3.3450	3.3451	-0.6825	7.47	1.50	-0.750			
0.7121	45571.58	3.3420	3.3419	-0.6663	7.48	1.51	-0.750			
0.7140	45698.39	3.3390	3.3390	-0.6570	7.50	1.53	-0.750			
