Ah_balance (normalized)	Ah_balance (mAh)	Voltage - fit (V)	Voltage -  interpolate (V)	dQ/dV (1/V)	Temperature (°C)	Temperature - diff (°C)	Current (C)	R_DC 0ms (mOhm)	R_DC 50ms (mOhm)	R_DC 50 ms PEC (mOhm)
0.1772	11342.02	4.0820	4.0820	0.7588	7.57	1.58	0.750			
0.1795	11488.36	4.0790	4.0791	0.7647	7.56	1.57	0.750			
0.1818	11635.80	4.0760	4.0760	0.7697	7.55	1.56	0.750			
0.1841	11783.55	4.0730	4.0730	0.7757	7.54	1.55	0.750			
0.1865	11933.43	4.0700	4.0700	0.7791	7.53	1.54	0.750			
0.1888	12085.21	4.0670	4.0670	0.7780	7.52	1.53	0.750			
0.1911	12233.19	4.0640	4.0640	0.7818	7.51	1.52	0.750			
0.1935	12383.28	4.0610	4.0610	0.7857	7.50	1.51	0.750			
0.1958	12533.92	4.0580	4.0579	0.7881	7.49	1.50	0.750			
0.1982	12685.37	4.0550	4.0550	0.7923	7.48	1.49	0.750			
0.2006	12838.45	4.0520	4.0521	0.7924	7.48	1.49	0.750			
0.2030	12991.08	4.0490	4.0490	0.8000	7.47	1.48	0.750			
0.2054	13146.41	4.0460	4.0460	0.8056	7.46	1.47	0.750			
0.2078	13299.20	4.0430	4.0430	0.8035	7.45	1.46	0.750			
0.2102	13454.23	4.0400	4.0400	0.8089	7.44	1.45	0.750			
0.2127	13611.08	4.0370	4.0371	0.8088	7.43	1.44	0.750			
0.2151	13765.95	4.0340	4.0340	0.8133	7.42	1.43	0.750			
0.2175	13923.04	4.0310	4.0310	0.8194	7.41	1.42	0.750			
0.2200	14078.41	4.0280	4.0280	0.8173	7.40	1.41	0.750			
0.2224	14236.51	4.0250	4.0251	0.8239	7.39	1.40	0.750			
0.2250	14397.00	4.0220	4.0220	0.8246	7.38	1.39	0.750			
0.2274	14555.12	4.0190	4.0189	0.8299	7.37	1.38	0.750			
0.2299	14714.50	4.0160	4.0161	0.8358	7.36	1.37	0.750			
0.2324	14874.05	4.0130	4.0131	0.8374	7.36	1.37	0.750			
0.2349	15035.74	4.0100	4.0101	0.8426	7.35	1.36	0.750			
0.2375	15199.81	4.0070	4.0070	0.8437	7.34	1.35	0.750			
0.2400	15362.10	4.0040	4.0040	0.8465	7.33	1.34	0.750			
0.2426	15524.44	4.0010	4.0010	0.8508	7.32	1.33	0.750			
0.2451	15686.90	3.9980	3.9981	0.8521	7.31	1.32	0.750			
0.2477	15850.50	3.9950	3.9950	0.8575	7.30	1.31	0.750			
0.2502	16016.00	3.9920	3.9920	0.8619	7.29	1.30	0.750			
0.2528	16182.38	3.9890	3.9890	0.8667	7.27	1.28	0.750			
0.2555	16350.13	3.9860	3.9860	0.8706	7.26	1.27	0.750			
0.2581	16517.48	3.9830	3.9830	0.8724	7.25	1.26	0.750			
0.2607	16685.07	3.9800	3.9800	0.8754	7.24	1.25	0.750			
0.2633	16853.15	3.9770	3.9770	0.8756	7.23	1.24	0.750			
0.2660	17021.29	3.9740	3.9740	0.8785	7.22	1.23	0.750			
0.2686	17189.00	3.9710	3.9711	0.8889	7.20	1.21	0.750			
0.2713	17360.39	3.9680	3.9679	0.8931	7.19	1.20	0.750			
0.2740	17535.19	3.9650	3.9649	0.8931	7.18	1.19	0.750			
0.2766	17705.49	3.9620	3.9620	0.8997	7.17	1.18	0.750			
0.2793	17878.36	3.9590	3.9592	0.9065	7.16	1.17	0.750			
0.2821	18053.02	3.9560	3.9561	0.9131	7.16	1.17	0.750			
0.2848	18227.53	3.9530	3.9528	0.9158	7.15	1.16	0.750			
0.2876	18403.56	3.9500	3.9501	0.9187	7.13	1.14	0.750			
0.2903	18581.45	3.9470	3.9470	0.9314	7.12	1.13	0.750			
0.2931	18761.05	3.9440	3.9440	0.9381	7.11	1.12	0.750			
0.2960	18942.00	3.9410	3.9409	0.9381	7.09	1.10	0.750			
0.2988	19123.73	3.9380	3.9380	0.9408	7.08	1.09	0.750			
0.3016	19304.24	3.9350	3.9350	0.9495	7.07	1.08	0.750			
0.3045	19487.17	3.9320	3.9320	0.9555	7.06	1.07	0.750			
0.3073	19670.34	3.9290	3.9289	0.9585	7.06	1.07	0.750			
0.3102	19854.83	3.9260	3.9261	0.9627	7.05	1.06	0.750			
0.3131	20040.01	3.9230	3.9231	0.9741	7.04	1.05	0.750			
0.3161	20227.64	3.9200	3.9200	0.9893	7.03	1.04	0.750			
0.3191	20419.63	3.9170	3.9170	0.9988	7.02	1.03	0.750			
0.3221	20612.89	3.9140	3.9140	1.0019	7.01	1.02	0.750			
0.3251	20806.77	3.9110	3.9111	1.0106	6.99	1.00	0.750			
0.3281	21001.37	3.9080	3.9081	1.0213	6.98	0.99	0.750			
0.3312	21197.85	3.9050	3.9050	1.0291	6.96	0.97	0.750			
0.3343	21396.53	3.9020	3.9019	1.0263	6.95	0.96	0.750			
0.3374	21593.02	3.8990	3.8990	1.0351	6.94	0.95	0.750			
0.3405	21793.04	3.8960	3.8961	1.0523	6.93	0.94	0.750			
0.3437	21996.14	3.8930	3.8930	1.0624	6.92	0.93	0.750			
0.3469	22201.77	3.8900	3.8898	1.0661	6.91	0.92	0.750			
0.3501	22405.54	3.8870	3.8871	1.0819	6.90	0.91	0.750			
0.3534	22614.64	3.8840	3.8841	1.1006	6.89	0.90	0.750			
0.3567	22828.79	3.8810	3.8811	1.1182	6.88	0.89	0.750			
0.3601	23043.96	3.8780	3.8781	1.1271	6.87	0.88	0.750			
0.3635	23262.54	3.8750	3.8751	1.1399	6.86	0.87	0.750			
0.3669	23483.67	3.8720	3.8720	1.1565	6.84	0.85	0.750			
0.3704	23707.68	3.8690	3.8690	1.1673	6.83	0.84	0.750			
0.3739	23931.72	3.8660	3.8659	1.1766	6.82	0.83	0.750			
0.3775	24157.30	3.8630	3.8630	1.1989	6.81	0.82	0.750			
0.3811	24388.56	3.8600	3.8601	1.2218	6.80	0.81	0.750			
0.3848	24626.60	3.8570	3.8570	1.2383	6.79	0.80	0.750			
0.3885	24866.91	3.8540	3.8540	1.2569	6.78	0.79	0.750			
0.3924	25111.68	3.8510	3.8511	1.2690	6.77	0.78	0.750			
0.3962	25354.47	3.8480	3.8478	1.3010	6.76	0.77	0.750			
0.4000	25602.18	3.8450	3.8451	1.3339	6.75	0.76	0.750			
0.4041	25860.40	3.8420	3.8420	1.3708	6.74	0.75	0.750			
0.4083	26129.53	3.8390	3.8390	1.3993	6.73	0.74	0.750	0.419	0.921	
0.4126	26404.42	3.8360	3.8362	1.4190	6.72	0.73	0.750			
0.4169	26683.88	3.8330	3.8331	1.4542	6.70	0.71	0.750			
0.4213	26963.70	3.8300	3.8299	1.4648	6.69	0.70	0.750			
0.4257	27242.38	3.8270	3.8271	1.4625	6.68	0.69	0.750			
0.4301	27523.36	3.8240	3.8240	1.4943	6.66	0.67	0.750			
0.4346	27811.61	3.8210	3.8208	1.5306	6.65	0.66	0.750			
0.4392	28108.56	3.8180	3.8181	1.5562	6.63	0.64	0.750			
0.4439	28409.80	3.8150	3.8152	1.6260	6.62	0.63	0.750			
0.4489	28731.87	3.8120	3.8120	1.6445	6.60	0.61	0.750			
0.4539	29048.28	3.8090	3.8089	1.6630	6.58	0.59	0.750			
0.4590	29375.64	3.8060	3.8058	1.6721	6.56	0.57	0.750			
0.4641	29700.69	3.8030	3.8029	1.6859	6.54	0.55	0.750			
0.4691	30020.42	3.8000	3.8000	1.7106	6.52	0.53	0.750			
0.4742	30348.05	3.7970	3.7969	1.7494	6.50	0.51	0.750			
0.4795	30690.37	3.7940	3.7940	1.7876	6.48	0.49	0.750			
0.4849	31031.28	3.7910	3.7910	1.8196	6.46	0.47	0.750			
0.4904	31386.95	3.7880	3.7878	1.8510	6.44	0.45	0.750			
0.4959	31739.68	3.7850	3.7850	1.8561	6.43	0.44	0.750			
0.5015	32096.32	3.7820	3.7821	1.8650	6.41	0.42	0.750			
0.5072	32460.49	3.7790	3.7790	1.8927	6.39	0.40	0.750			
0.5129	32823.59	3.7760	3.7764	1.8767	6.36	0.37	0.750			
0.5185	33187.01	3.7730	3.7732	1.9001	6.34	0.35	0.750			
0.5242	33548.23	3.7700	3.7699	1.9168	6.32	0.33	0.750			
0.5300	33922.97	3.7670	3.7671	1.9428	6.30	0.31	0.750			
0.5359	34294.87	3.7640	3.7639	1.9670	6.28	0.29	0.750			
0.5418	34675.86	3.7610	3.7611	1.9767	6.27	0.28	0.750			
0.5477	35052.82	3.7580	3.7580	1.9958	6.24	0.25	0.750			
0.5539	35447.87	3.7550	3.7549	2.0043	6.21	0.22	0.750			
0.5600	35840.41	3.7520	3.7520	1.9381	6.19	0.20	0.750			
0.5656	36196.80	3.7490	3.7495	1.9549	6.17	0.18	0.750			
0.5713	36562.42	3.7460	3.7456	2.0256	6.15	0.16	0.750			
0.5775	36957.23	3.7430	3.7431	2.0991	6.13	0.14	0.750			
0.5842	37388.34	3.7400	3.7400	2.2546	6.11	0.12	0.750			
0.5912	37836.04	3.7370	3.7371	2.2961	6.09	0.10	0.750			
0.5980	38274.50	3.7340	3.7340	2.3591	6.07	0.08	0.750			
0.6052	38733.65	3.7310	3.7309	2.4264	6.04	0.05	0.750			
0.6127	39215.92	3.7280	3.7279	2.4514	6.02	0.03	0.750			
0.6201	39686.43	3.7250	3.7251	2.4570	6.01	0.02	0.750			
0.6276	40169.48	3.7220	3.7219	2.3728	6.00	0.01	0.750			
0.6346	40613.76	3.7190	3.7189	2.2233	5.99	-0.00	0.750			
0.6411	41031.04	3.7160	3.7157	2.0590	5.98	-0.01	0.750			
0.6470	41408.45	3.7130	3.7131	1.8828	5.97	-0.02	0.750			
0.6523	41747.29	3.7100	3.7101	1.6929	5.96	-0.03	0.750			
0.6572	42061.16	3.7070	3.7075	1.5407	5.95	-0.04	0.750			
0.6614	42331.30	3.7040	3.7041	1.4008	5.95	-0.04	0.750			
0.6654	42588.73	3.7010	3.7010	1.2807	5.95	-0.04	0.750			
0.6690	42813.31	3.6980	3.6980	1.1717	5.95	-0.04	0.750			
0.6723	43024.93	3.6950	3.6949	1.0835	5.95	-0.04	0.750			
0.6754	43223.94	3.6920	3.6926	1.0180	5.95	-0.04	0.750			
0.6783	43409.97	3.6890	3.6889	0.9683	5.95	-0.04	0.750			
0.6811	43589.41	3.6860	3.6860	0.9272	5.95	-0.04	0.750			
0.6837	43758.73	3.6830	3.6829	0.8896	5.95	-0.04	0.750			
0.6864	43928.23	3.6800	3.6800	0.8728	5.95	-0.04	0.750			
0.6890	44093.96	3.6770	3.6770	0.8422	5.95	-0.04	0.750			
0.6914	44252.32	3.6740	3.6741	0.8182	5.95	-0.04	0.750			
0.6939	44407.33	3.6710	3.6710	0.7918	5.95	-0.04	0.750			
0.6962	44556.49	3.6680	3.6677	0.7664	5.95	-0.04	0.750			
0.6984	44700.68	3.6650	3.6651	0.7370	5.95	-0.04	0.750			
0.7006	44839.55	3.6620	3.6621	0.7108	5.96	-0.03	0.750			
0.7028	44977.00	3.6590	3.6589	0.6798	5.96	-0.03	0.750			
0.7047	45103.07	3.6560	3.6561	0.6488	5.96	-0.03	0.750			
0.7066	45225.03	3.6530	3.6531	0.6231	5.97	-0.02	0.750			
0.7085	45342.23	3.6500	3.6498	0.5932	5.97	-0.02	0.750			
0.7102	45453.19	3.6470	3.6471	0.5650	5.97	-0.02	0.750			
0.7119	45559.13	3.6440	3.6441	0.5363	5.97	-0.02	0.750			
0.7134	45659.02	3.6410	3.6410	0.5050	5.98	-0.01	0.750			
0.7149	45753.44	3.6380	3.6380	0.4729	5.98	-0.01	0.750			
0.7163	45842.73	3.6350	3.6350	0.4387	5.98	-0.01	0.750			
0.7176	45924.17	3.6320	3.6320	0.4030	5.98	-0.01	0.750			
0.7187	45999.19	3.6290	3.6291	0.3674	5.99	-0.00	0.750			
0.7198	46065.48	3.6260	3.6259	0.3282	5.99	-0.00	0.750			
0.7207	46124.81	3.6230	3.6229	0.2899	5.99	-0.00	0.750			
0.7215	46177.46	3.6200	3.6197	0.2465	5.99	0.00	0.750			
0.7222	46221.03	3.6170	3.6171	0.2053	5.99	0.00	0.750			
0.7228	46258.20	3.6140	3.6141	0.1656	5.99	0.00	0.750			
0.7232	46287.21	3.6110	3.6112	0.1219	5.99	0.00	0.750			
0.7235	46307.12	3.6080	3.6079	0.0743	5.99	0.00	0.750			
0.7237	46316.72	3.6050	3.6040	0.0250	5.99	0.00	0.750			
0.7237	46316.78	3.6020	3.6040	-0.0244	5.99	0.00	0.750			
