Ah_balance (normalized)	Ah_balance (mAh)	Voltage - fit (V)	Voltage -  interpolate (V)	dQ/dV (1/V)	Temperature (°C)	Temperature - diff (°C)	Current (C)	R_DC 0ms (mOhm)	R_DC 50ms (mOhm)	R_DC 50 ms PEC (mOhm)
0.0940	6013.73	4.0070	4.0063	-0.0635	6.01	0.00	-0.750			
0.0942	6028.86	4.0040	4.0035	-0.0931	6.01	0.00	-0.750			
0.0945	6049.62	4.0010	4.0009	-0.1216	6.01	0.00	-0.750			
0.0949	6076.17	3.9980	3.9979	-0.1490	6.01	0.00	-0.750			
0.0954	6107.47	3.9950	3.9951	-0.1754	6.01	-0.00	-0.750			
0.0960	6143.72	3.9920	3.9920	-0.2015	6.01	-0.00	-0.750			
0.0966	6185.57	3.9890	3.9891	-0.2274	6.00	-0.01	-0.750			
0.0974	6231.93	3.9860	3.9859	-0.2512	6.00	-0.01	-0.750			
0.0982	6282.55	3.9830	3.9830	-0.2735	6.00	-0.01	-0.750			
0.0990	6337.31	3.9800	3.9800	-0.2945	6.00	-0.01	-0.750			
0.0999	6395.56	3.9770	3.9771	-0.3182	5.99	-0.02	-0.750			
0.1009	6458.51	3.9740	3.9741	-0.3438	5.99	-0.02	-0.750			
0.1020	6526.11	3.9710	3.9708	-0.3685	5.99	-0.02	-0.750			
0.1031	6599.59	3.9680	3.9680	-0.3958	5.98	-0.03	-0.750			
0.1043	6678.33	3.9650	3.9651	-0.4237	5.98	-0.03	-0.750			
0.1057	6763.88	3.9620	3.9619	-0.4488	5.98	-0.03	-0.750			
0.1071	6852.76	3.9590	3.9589	-0.4730	5.97	-0.04	-0.750			
0.1085	6945.63	3.9560	3.9560	-0.4905	5.97	-0.04	-0.750			
0.1100	7041.49	3.9530	3.9531	-0.5122	5.97	-0.04	-0.750			
0.1116	7141.56	3.9500	3.9500	-0.5333	5.96	-0.05	-0.750			
0.1132	7245.16	3.9470	3.9469	-0.5558	5.96	-0.05	-0.750			
0.1149	7353.95	3.9440	3.9440	-0.5765	5.96	-0.05	-0.750			
0.1167	7467.74	3.9410	3.9410	-0.5948	5.96	-0.05	-0.750			
0.1185	7584.80	3.9380	3.9380	-0.6126	5.95	-0.06	-0.750			
0.1204	7705.90	3.9350	3.9352	-0.6287	5.95	-0.06	-0.750			
0.1223	7826.08	3.9320	3.9318	-0.6414	5.95	-0.06	-0.750			
0.1242	7951.01	3.9290	3.9290	-0.6543	5.95	-0.06	-0.750			
0.1262	8078.13	3.9260	3.9261	-0.6700	5.95	-0.06	-0.750			
0.1283	8210.14	3.9230	3.9229	-0.6810	5.94	-0.07	-0.750			
0.1303	8342.35	3.9200	3.9199	-0.6898	5.94	-0.07	-0.750			
0.1324	8475.88	3.9170	3.9173	-0.6969	5.94	-0.07	-0.750			
0.1345	8609.96	3.9140	3.9140	-0.7027	5.94	-0.07	-0.750			
0.1366	8744.95	3.9110	3.9109	-0.7073	5.94	-0.07	-0.750			
0.1388	8881.50	3.9080	3.9081	-0.7202	5.94	-0.07	-0.750			
0.1410	9021.82	3.9050	3.9048	-0.7266	5.94	-0.07	-0.750			
0.1432	9161.63	3.9020	3.9020	-0.7316	5.94	-0.07	-0.750			
0.1454	9303.35	3.8990	3.8992	-0.7331	5.94	-0.07	-0.750			
0.1476	9444.23	3.8960	3.8959	-0.7354	5.94	-0.07	-0.750			
0.1498	9584.19	3.8930	3.8930	-0.7410	5.94	-0.07	-0.750			
0.1520	9727.30	3.8900	3.8900	-0.7431	5.95	-0.06	-0.750			
0.1542	9871.53	3.8870	3.8869	-0.7471	5.95	-0.06	-0.750			
0.1565	10015.10	3.8840	3.8839	-0.7522	5.95	-0.06	-0.750			
0.1587	10159.36	3.8810	3.8810	-0.7542	5.95	-0.06	-0.750			
0.1610	10305.33	3.8780	3.8779	-0.7608	5.96	-0.05	-0.750			
0.1633	10450.57	3.8750	3.8749	-0.7659	5.96	-0.05	-0.750			
0.1656	10598.26	3.8720	3.8720	-0.7650	5.96	-0.05	-0.750			
0.1679	10748.47	3.8690	3.8691	-0.7724	5.97	-0.04	-0.750			
0.1703	10898.61	3.8660	3.8661	-0.7697	5.97	-0.04	-0.750			
0.1726	11045.16	3.8630	3.8630	-0.7664	5.97	-0.04	-0.750			
0.1748	11190.00	3.8600	3.8600	-0.7722	5.98	-0.03	-0.750			
0.1771	11337.27	3.8570	3.8569	-0.7761	5.98	-0.03	-0.750			
0.1795	11487.45	3.8540	3.8539	-0.7787	5.99	-0.02	-0.750			
0.1818	11638.20	3.8510	3.8510	-0.7819	5.99	-0.02	-0.750			
0.1842	11791.37	3.8480	3.8480	-0.7821	5.99	-0.02	-0.750			
0.1866	11941.48	3.8450	3.8449	-0.7824	6.00	-0.01	-0.750			
0.1889	12088.72	3.8420	3.8421	-0.7787	6.00	-0.01	-0.750			
0.1912	12236.81	3.8390	3.8391	-0.7797	6.00	-0.01	-0.750			
0.1936	12387.62	3.8360	3.8358	-0.7854	6.01	-0.00	-0.750			
0.1959	12538.95	3.8330	3.8331	-0.7915	6.01	0.00	-0.750			
0.1983	12690.65	3.8300	3.8300	-0.7966	6.02	0.01	-0.750			
0.2007	12845.05	3.8270	3.8270	-0.8001	6.02	0.01	-0.750			
0.2031	13000.22	3.8240	3.8240	-0.7967	6.02	0.01	-0.750			
0.2055	13153.39	3.8210	3.8209	-0.7990	6.03	0.02	-0.750			
0.2079	13307.45	3.8180	3.8182	-0.7982	6.03	0.02	-0.750			
0.2103	13460.56	3.8150	3.8150	-0.7955	6.04	0.03	-0.750			
0.2127	13612.07	3.8120	3.8119	-0.7953	6.05	0.04	-0.750			
0.2151	13764.59	3.8090	3.8090	-0.7973	6.05	0.04	-0.750			
0.2175	13917.91	3.8060	3.8059	-0.7957	6.06	0.05	-0.750			
0.2199	14070.71	3.8030	3.8031	-0.7942	6.07	0.06	-0.750			
0.2222	14223.17	3.8000	3.8000	-0.7906	6.07	0.06	-0.750			
0.2246	14374.56	3.7970	3.7969	-0.7969	6.08	0.07	-0.750			
0.2270	14527.17	3.7940	3.7940	-0.7967	6.08	0.07	-0.750			
0.2294	14680.28	3.7910	3.7909	-0.7956	6.08	0.07	-0.750			
0.2318	14833.93	3.7880	3.7881	-0.7980	6.09	0.08	-0.750			
0.2342	14988.53	3.7850	3.7850	-0.7988	6.10	0.09	-0.750			
0.2366	15141.48	3.7820	3.7820	-0.7999	6.11	0.10	-0.750			
0.2390	15294.56	3.7790	3.7790	-0.8015	6.12	0.11	-0.750			
0.2413	15445.99	3.7760	3.7760	-0.8008	6.13	0.12	-0.750			
0.2438	15603.38	3.7730	3.7729	-0.8029	6.14	0.13	-0.750			
0.2462	15757.28	3.7700	3.7701	-0.8043	6.14	0.13	-0.750			
0.2486	15909.72	3.7670	3.7671	-0.8114	6.15	0.14	-0.750			
0.2511	16068.12	3.7640	3.7639	-0.8103	6.15	0.14	-0.750			
0.2535	16223.49	3.7610	3.7609	-0.8088	6.15	0.14	-0.750			
0.2559	16379.49	3.7580	3.7580	-0.8078	6.16	0.15	-0.750			
0.2584	16535.27	3.7550	3.7551	-0.8085	6.16	0.15	-0.750			
0.2608	16689.50	3.7520	3.7519	-0.8149	6.17	0.16	-0.750			
0.2632	16843.16	3.7490	3.7490	-0.8129	6.18	0.17	-0.750			
0.2656	16999.23	3.7460	3.7460	-0.8129	6.19	0.18	-0.750			
0.2681	17158.77	3.7430	3.7430	-0.8234	6.19	0.18	-0.750			
0.2706	17318.57	3.7400	3.7401	-0.8231	6.20	0.19	-0.750			
0.2731	17476.87	3.7370	3.7369	-0.8237	6.21	0.20	-0.750			
0.2755	17634.20	3.7340	3.7340	-0.8289	6.21	0.20	-0.750			
0.2780	17793.16	3.7310	3.7310	-0.8276	6.22	0.21	-0.750			
0.2805	17952.93	3.7280	3.7279	-0.8326	6.23	0.22	-0.750			
0.2830	18113.38	3.7250	3.7252	-0.8343	6.23	0.22	-0.750			
0.2855	18273.05	3.7220	3.7219	-0.8385	6.23	0.22	-0.750			
0.2880	18434.54	3.7190	3.7190	-0.8445	6.24	0.23	-0.750			
0.2906	18595.54	3.7160	3.7160	-0.8445	6.24	0.23	-0.750			
0.2931	18759.94	3.7130	3.7130	-0.8535	6.25	0.24	-0.750			
0.2957	18923.63	3.7100	3.7101	-0.8598	6.25	0.24	-0.750			
0.2982	19087.82	3.7070	3.7069	-0.8670	6.26	0.25	-0.750			
0.3009	19256.47	3.7040	3.7040	-0.8674	6.26	0.25	-0.750			
0.3035	19421.83	3.7010	3.7009	-0.8729	6.26	0.25	-0.750			
0.3061	19591.08	3.6980	3.6980	-0.8775	6.27	0.26	-0.750			
0.3087	19759.51	3.6950	3.6950	-0.8850	6.27	0.26	-0.750			
0.3114	19927.10	3.6920	3.6920	-0.8987	6.28	0.27	-0.750			
0.3141	20099.88	3.6890	3.6887	-0.9137	6.28	0.27	-0.750			
0.3168	20276.36	3.6860	3.6860	-0.9259	6.28	0.27	-0.750			
0.3197	20458.20	3.6830	3.6828	-0.9416	6.29	0.28	-0.750			
0.3225	20641.27	3.6800	3.6801	-0.9551	6.29	0.28	-0.750			
0.3254	20827.34	3.6770	3.6770	-0.9687	6.30	0.29	-0.750			
0.3283	21012.81	3.6740	3.6739	-0.9706	6.30	0.29	-0.750			
0.3312	21199.23	3.6710	3.6708	-0.9785	6.31	0.30	-0.750			
0.3342	21388.57	3.6680	3.6679	-0.9872	6.31	0.30	-0.750			
0.3372	21579.29	3.6650	3.6650	-0.9947	6.32	0.31	-0.750			
0.3402	21770.01	3.6620	3.6620	-1.0042	6.32	0.31	-0.750			
0.3431	21961.12	3.6590	3.6590	-1.0094	6.33	0.32	-0.750			
0.3462	22155.36	3.6560	3.6561	-1.0361	6.33	0.32	-0.750			
0.3494	22359.63	3.6530	3.6529	-1.0473	6.34	0.33	-0.750			
0.3525	22562.30	3.6500	3.6500	-1.0585	6.34	0.33	-0.750			
0.3558	22768.13	3.6470	3.6469	-1.0693	6.35	0.34	-0.750			
0.3590	22973.58	3.6440	3.6439	-1.0815	6.35	0.34	-0.750			
0.3622	23181.87	3.6410	3.6409	-1.0880	6.36	0.35	-0.750			
0.3655	23391.64	3.6380	3.6379	-1.0963	6.36	0.35	-0.750			
0.3687	23599.92	3.6350	3.6351	-1.1043	6.37	0.36	-0.750			
0.3722	23817.70	3.6320	3.6320	-1.1305	6.37	0.36	-0.750			
0.3756	24035.43	3.6290	3.6289	-1.1401	6.37	0.36	-0.750			
0.3790	24255.89	3.6260	3.6260	-1.1516	6.37	0.36	-0.750			
0.3824	24474.94	3.6230	3.6232	-1.1744	6.37	0.36	-0.750			
0.3861	24707.35	3.6200	3.6199	-1.1887	6.38	0.37	-0.750			
0.3897	24937.72	3.6170	3.6169	-1.1953	6.38	0.37	-0.750			
0.3932	25164.23	3.6140	3.6140	-1.2183	6.39	0.38	-0.750			
0.3969	25401.15	3.6110	3.6110	-1.2262	6.39	0.38	-0.750			
0.4006	25635.35	3.6080	3.6079	-1.2446	6.39	0.38	-0.750			
0.4043	25874.82	3.6050	3.6049	-1.2549	6.39	0.38	-0.750			
0.4081	26117.44	3.6020	3.6022	-1.2674	6.39	0.38	-0.750			
0.4120	26367.35	3.5990	3.5989	-1.2906	6.39	0.38	-0.750			
0.4159	26617.64	3.5960	3.5960	-1.3010	6.40	0.39	-0.750	0.497	1.123	
0.4198	26866.33	3.5930	3.5932	-1.3131	6.40	0.39	-0.750			
0.4238	27120.97	3.5900	3.5899	-1.3278	6.40	0.39	-0.750			
0.4277	27373.21	3.5870	3.5870	-1.3321	6.41	0.40	-0.750			
0.4317	27631.63	3.5840	3.5841	-1.3636	6.41	0.40	-0.750			
0.4359	27897.67	3.5810	3.5810	-1.3895	6.41	0.40	-0.750			
0.4401	28164.75	3.5780	3.5779	-1.4025	6.41	0.40	-0.750			
0.4443	28435.92	3.5750	3.5751	-1.4286	6.41	0.40	-0.750			
0.4486	28711.38	3.5720	3.5720	-1.4480	6.41	0.40	-0.750			
0.4531	28996.38	3.5690	3.5690	-1.4612	6.41	0.40	-0.750			
0.4575	29278.25	3.5660	3.5663	-1.4678	6.41	0.40	-0.750			
0.4619	29558.44	3.5630	3.5629	-1.4782	6.42	0.41	-0.750			
0.4664	29848.11	3.5600	3.5601	-1.4872	6.42	0.41	-0.750			
0.4709	30134.92	3.5570	3.5570	-1.5019	6.43	0.42	-0.750			
0.4754	30426.11	3.5540	3.5542	-1.5230	6.43	0.42	-0.750			
0.4800	30719.66	3.5510	3.5508	-1.5319	6.43	0.42	-0.750			
0.4846	31012.66	3.5480	3.5480	-1.5610	6.43	0.42	-0.750			
0.4892	31311.16	3.5450	3.5450	-1.5724	6.44	0.43	-0.750			
0.4940	31615.21	3.5420	3.5419	-1.5812	6.45	0.44	-0.750			
0.4988	31921.92	3.5390	3.5390	-1.5792	6.45	0.44	-0.750			
0.5036	32230.48	3.5360	3.5358	-1.5949	6.45	0.44	-0.750			
0.5084	32536.39	3.5330	3.5331	-1.5826	6.45	0.44	-0.750			
0.5131	32838.74	3.5300	3.5296	-1.6042	6.45	0.44	-0.750			
0.5179	33143.05	3.5270	3.5267	-1.6157	6.44	0.43	-0.750			
0.5228	33457.75	3.5240	3.5239	-1.6246	6.44	0.43	-0.750			
0.5278	33780.40	3.5210	3.5212	-1.6671	6.45	0.44	-0.750			
0.5327	34095.57	3.5180	3.5183	-1.6688	6.46	0.45	-0.750			
0.5378	34420.01	3.5150	3.5147	-1.6995	6.46	0.45	-0.750			
0.5430	34751.19	3.5120	3.5120	-1.7017	6.46	0.45	-0.750			
0.5481	35079.78	3.5090	3.5087	-1.7071	6.46	0.45	-0.750			
0.5533	35412.66	3.5060	3.5058	-1.7187	6.47	0.46	-0.750			
0.5585	35741.05	3.5030	3.5030	-1.6868	6.47	0.46	-0.750			
0.5635	36064.35	3.5000	3.5003	-1.6779	6.47	0.46	-0.750			
0.5685	36380.88	3.4970	3.4972	-1.6569	6.47	0.46	-0.750			
0.5734	36696.69	3.4940	3.4938	-1.6515	6.48	0.47	-0.750			
0.5784	37016.60	3.4910	3.4907	-1.6808	6.48	0.47	-0.750			
0.5835	37341.36	3.4880	3.4880	-1.6765	6.49	0.48	-0.750			
0.5886	37667.43	3.4850	3.4852	-1.6483	6.50	0.49	-0.750			
0.5935	37986.08	3.4820	3.4821	-1.6262	6.51	0.50	-0.750			
0.5983	38291.25	3.4790	3.4789	-1.5989	6.52	0.51	-0.750			
0.6031	38596.04	3.4760	3.4759	-1.5970	6.52	0.51	-0.750			
0.6079	38904.49	3.4730	3.4729	-1.5782	6.53	0.52	-0.750			
0.6126	39207.07	3.4700	3.4700	-1.5776	6.54	0.53	-0.750			
0.6173	39506.26	3.4670	3.4670	-1.5634	6.55	0.54	-0.750			
0.6221	39812.86	3.4640	3.4639	-1.5486	6.57	0.56	-0.750			
0.6267	40107.55	3.4610	3.4608	-1.5334	6.58	0.57	-0.750			
0.6312	40397.21	3.4580	3.4580	-1.5058	6.60	0.59	-0.750			
0.6357	40684.57	3.4550	3.4548	-1.4803	6.61	0.60	-0.750			
0.6402	40973.77	3.4520	3.4523	-1.4633	6.62	0.61	-0.750			
0.6445	41247.26	3.4490	3.4490	-1.4243	6.63	0.62	-0.750			
0.6487	41514.23	3.4460	3.4460	-1.3940	6.64	0.63	-0.750			
0.6529	41786.32	3.4430	3.4429	-1.3746	6.66	0.65	-0.750			
0.6570	42048.22	3.4400	3.4401	-1.3515	6.67	0.66	-0.750			
0.6610	42304.79	3.4370	3.4369	-1.3167	6.69	0.68	-0.750			
0.6649	42554.84	3.4340	3.4341	-1.2972	6.71	0.70	-0.750			
0.6688	42800.09	3.4310	3.4307	-1.2709	6.72	0.71	-0.750			
0.6725	43038.47	3.4280	3.4278	-1.2572	6.74	0.73	-0.750			
0.6762	43277.04	3.4250	3.4249	-1.2451	6.75	0.74	-0.750			
0.6800	43517.28	3.4220	3.4220	-1.2290	6.76	0.75	-0.750			
0.6837	43758.26	3.4190	3.4190	-1.2306	6.78	0.77	-0.750			
0.6874	43994.41	3.4160	3.4160	-1.1954	6.79	0.78	-0.750			
0.6910	44221.94	3.4130	3.4130	-1.1540	6.81	0.80	-0.750			
0.6944	44440.00	3.4100	3.4100	-1.1116	6.83	0.82	-0.750			
0.6976	44648.96	3.4070	3.4069	-1.0803	6.84	0.83	-0.750			
0.7008	44849.95	3.4040	3.4040	-1.0385	6.86	0.85	-0.750			
0.7038	45044.60	3.4010	3.4009	-1.0116	6.87	0.86	-0.750			
0.7068	45234.44	3.3980	3.3981	-0.9808	6.89	0.88	-0.750			
0.7098	45424.19	3.3950	3.3949	-0.9623	6.90	0.89	-0.750			
0.7126	45607.44	3.3920	3.3920	-0.9273	6.91	0.90	-0.750			
0.7154	45783.17	3.3890	3.3890	-0.8936	6.93	0.92	-0.750			
0.7180	45949.72	3.3860	3.3860	-0.8646	6.94	0.93	-0.750			
0.7205	46113.36	3.3830	3.3833	-0.8415	6.95	0.94	-0.750			
0.7230	46270.86	3.3800	3.3798	-0.8133	6.96	0.95	-0.750			
0.7254	46423.90	3.3770	3.3770	-0.7916	6.98	0.97	-0.750			
0.7277	46572.72	3.3740	3.3740	-0.7793	6.99	0.98	-0.750			
0.7300	46721.32	3.3710	3.3710	-0.7634	7.00	0.99	-0.750			
