Ah_balance (normalized)	Ah_balance (mAh)	Voltage - fit (V)	Voltage -  interpolate (V)	dQ/dV (1/V)	Temperature (°C)	Temperature - diff (°C)	Current (C)	R_DC 0ms (mOhm)	R_DC 50ms (mOhm)	R_DC 50 ms PEC (mOhm)
0.1766	11303.09	4.0820	4.0820	0.7480	7.56	1.57	0.750			
0.1789	11449.26	4.0790	4.0791	0.7668	7.55	1.56	0.750			
0.1812	11597.91	4.0760	4.0759	0.7740	7.55	1.56	0.750			
0.1835	11747.07	4.0730	4.0730	0.7778	7.55	1.56	0.750			
0.1859	11897.25	4.0700	4.0700	0.7797	7.54	1.55	0.750			
0.1883	12048.24	4.0670	4.0670	0.7828	7.54	1.55	0.750			
0.1906	12198.64	4.0640	4.0640	0.7830	7.54	1.55	0.750			
0.1929	12346.96	4.0610	4.0611	0.7824	7.53	1.54	0.750			
0.1953	12497.20	4.0580	4.0580	0.7877	7.53	1.54	0.750			
0.1977	12651.39	4.0550	4.0549	0.7879	7.52	1.53	0.750			
0.2000	12801.58	4.0520	4.0520	0.7903	7.51	1.52	0.750			
0.2024	12952.64	4.0490	4.0490	0.7975	7.50	1.51	0.750			
0.2048	13105.84	4.0460	4.0462	0.8026	7.50	1.51	0.750			
0.2072	13260.10	4.0430	4.0427	0.8060	7.49	1.50	0.750			
0.2096	13416.23	4.0400	4.0400	0.8064	7.49	1.50	0.750			
0.2121	13571.49	4.0370	4.0371	0.8112	7.48	1.49	0.750			
0.2145	13727.17	4.0340	4.0341	0.8205	7.48	1.49	0.750			
0.2170	13885.42	4.0310	4.0309	0.8231	7.47	1.48	0.750			
0.2194	14042.29	4.0280	4.0279	0.8260	7.47	1.48	0.750			
0.2219	14203.95	4.0250	4.0250	0.8298	7.47	1.48	0.750			
0.2245	14366.72	4.0220	4.0221	0.8279	7.46	1.47	0.750			
0.2269	14524.49	4.0190	4.0191	0.8287	7.46	1.47	0.750			
0.2294	14681.51	4.0160	4.0161	0.8232	7.45	1.46	0.750			
0.2318	14838.15	4.0130	4.0127	0.8255	7.45	1.46	0.750			
0.2343	14996.35	4.0100	4.0101	0.8233	7.44	1.45	0.750			
0.2368	15154.07	4.0070	4.0071	0.8247	7.43	1.44	0.750			
0.2393	15314.27	4.0040	4.0040	0.8351	7.43	1.44	0.750			
0.2418	15473.36	4.0010	4.0010	0.8348	7.42	1.43	0.750			
0.2443	15633.18	3.9980	3.9977	0.8447	7.41	1.42	0.750			
0.2468	15797.77	3.9950	3.9950	0.8484	7.41	1.42	0.750			
0.2494	15961.52	3.9920	3.9921	0.8543	7.40	1.41	0.750			
0.2520	16129.33	3.9890	3.9889	0.8613	7.40	1.41	0.750			
0.2546	16291.83	3.9860	3.9861	0.8594	7.39	1.40	0.750			
0.2571	16456.44	3.9830	3.9830	0.8630	7.39	1.40	0.750			
0.2597	16623.71	3.9800	3.9800	0.8656	7.38	1.39	0.750			
0.2623	16789.98	3.9770	3.9770	0.8709	7.37	1.38	0.750			
0.2650	16959.73	3.9740	3.9740	0.8773	7.36	1.37	0.750			
0.2676	17128.26	3.9710	3.9710	0.8809	7.36	1.37	0.750			
0.2703	17296.42	3.9680	3.9680	0.8854	7.35	1.36	0.750			
0.2729	17468.32	3.9650	3.9650	0.8803	7.34	1.35	0.750			
0.2756	17635.67	3.9620	3.9620	0.8934	7.34	1.35	0.750			
0.2783	17808.42	3.9590	3.9590	0.9007	7.34	1.35	0.750			
0.2809	17980.66	3.9560	3.9559	0.9064	7.33	1.34	0.750			
0.2837	18158.48	3.9530	3.9530	0.9072	7.32	1.33	0.750			
0.2865	18332.92	3.9500	3.9501	0.9133	7.32	1.33	0.750			
0.2892	18508.85	3.9470	3.9470	0.9201	7.31	1.32	0.750			
0.2920	18687.93	3.9440	3.9440	0.9268	7.30	1.31	0.750			
0.2947	18861.22	3.9410	3.9408	0.9257	7.29	1.30	0.750			
0.2975	19042.47	3.9380	3.9381	0.9289	7.28	1.29	0.750			
0.3003	19220.42	3.9350	3.9350	0.9395	7.27	1.28	0.750			
0.3032	19401.82	3.9320	3.9321	0.9515	7.26	1.27	0.750			
0.3060	19582.68	3.9290	3.9289	0.9611	7.25	1.26	0.750			
0.3089	19771.56	3.9260	3.9260	0.9588	7.24	1.25	0.750			
0.3118	19956.82	3.9230	3.9230	0.9701	7.23	1.24	0.750			
0.3147	20141.90	3.9200	3.9202	0.9882	7.22	1.23	0.750			
0.3177	20333.74	3.9170	3.9170	0.9957	7.22	1.23	0.750			
0.3207	20527.78	3.9140	3.9140	0.9975	7.21	1.22	0.750			
0.3238	20720.03	3.9110	3.9112	1.0031	7.20	1.21	0.750			
0.3268	20913.76	3.9080	3.9081	1.0091	7.19	1.20	0.750			
0.3299	21110.66	3.9050	3.9050	1.0151	7.18	1.19	0.750			
0.3329	21302.92	3.9020	3.9020	1.0141	7.17	1.18	0.750			
0.3358	21494.13	3.8990	3.8990	1.0308	7.16	1.17	0.750			
0.3390	21694.36	3.8960	3.8960	1.0521	7.15	1.16	0.750			
0.3422	21899.67	3.8930	3.8930	1.0697	7.14	1.15	0.750			
0.3455	22111.29	3.8900	3.8899	1.0713	7.13	1.14	0.750			
0.3487	22317.86	3.8870	3.8871	1.0825	7.12	1.13	0.750			
0.3520	22525.81	3.8840	3.8841	1.0951	7.11	1.12	0.750			
0.3552	22735.11	3.8810	3.8811	1.1063	7.10	1.11	0.750			
0.3585	22946.61	3.8780	3.8781	1.1058	7.08	1.09	0.750			
0.3618	23157.90	3.8750	3.8751	1.1275	7.07	1.08	0.750			
0.3653	23376.73	3.8720	3.8721	1.1493	7.06	1.07	0.750			
0.3688	23604.56	3.8690	3.8687	1.1687	7.05	1.06	0.750			
0.3723	23826.90	3.8660	3.8661	1.1787	7.04	1.05	0.750			
0.3758	24053.67	3.8630	3.8631	1.2009	7.03	1.04	0.750			
0.3795	24287.96	3.8600	3.8600	1.2181	7.02	1.03	0.750			
0.3832	24522.89	3.8570	3.8570	1.2209	7.00	1.01	0.750			
0.3869	24758.41	3.8540	3.8541	1.2433	6.99	1.00	0.750			
0.3906	24998.56	3.8510	3.8511	1.2676	6.97	0.98	0.750			
0.3944	25242.45	3.8480	3.8477	1.3010	6.95	0.96	0.750			
0.3983	25491.44	3.8450	3.8451	1.3280	6.94	0.95	0.750			
0.4024	25752.58	3.8420	3.8420	1.3488	6.92	0.93	0.750			
0.4065	26017.08	3.8390	3.8389	1.4011	6.91	0.92	0.750	0.387	0.895	
0.4108	26289.16	3.8360	3.8360	1.4236	6.89	0.90	0.750			
0.4151	26568.24	3.8330	3.8328	1.4464	6.87	0.88	0.750			
0.4196	26851.61	3.8300	3.8302	1.4462	6.85	0.86	0.750			
0.4238	27126.12	3.8270	3.8272	1.4605	6.84	0.85	0.750			
0.4283	27408.50	3.8240	3.8240	1.4843	6.82	0.83	0.750			
0.4327	27694.52	3.8210	3.8211	1.5025	6.81	0.82	0.750			
0.4371	27974.58	3.8180	3.8181	1.5240	6.79	0.80	0.750			
0.4418	28275.36	3.8150	3.8152	1.5622	6.78	0.79	0.750			
0.4466	28581.10	3.8120	3.8118	1.5896	6.76	0.77	0.750			
0.4513	28881.57	3.8090	3.8088	1.6351	6.74	0.75	0.750			
0.4562	29196.27	3.8060	3.8061	1.6837	6.71	0.72	0.750			
0.4614	29531.56	3.8030	3.8031	1.7210	6.70	0.71	0.750			
0.4667	29867.74	3.8000	3.8003	1.7450	6.68	0.69	0.750			
0.4720	30209.34	3.7970	3.7972	1.7863	6.66	0.67	0.750			
0.4772	30542.57	3.7940	3.7940	1.7908	6.63	0.64	0.750			
0.4826	30887.89	3.7910	3.7907	1.8036	6.61	0.62	0.750			
0.4881	31239.24	3.7880	3.7880	1.8574	6.59	0.60	0.750			
0.4938	31606.22	3.7850	3.7847	1.8664	6.57	0.58	0.750			
0.4995	31965.58	3.7820	3.7819	1.8642	6.55	0.56	0.750			
0.5051	32328.00	3.7790	3.7791	1.9038	6.52	0.53	0.750			
0.5110	32702.66	3.7760	3.7759	1.9343	6.50	0.51	0.750			
0.5167	33067.39	3.7730	3.7728	1.9868	6.48	0.49	0.750			
0.5228	33460.88	3.7700	3.7701	1.9974	6.46	0.47	0.750			
0.5288	33841.29	3.7670	3.7670	2.0092	6.44	0.45	0.750			
0.5349	34230.68	3.7640	3.7638	2.0257	6.42	0.43	0.750			
0.5410	34626.46	3.7610	3.7612	2.0368	6.39	0.40	0.750			
0.5471	35013.53	3.7580	3.7578	2.0599	6.36	0.37	0.750			
0.5532	35407.52	3.7550	3.7548	2.0849	6.33	0.34	0.750			
0.5595	35805.82	3.7520	3.7523	2.1404	6.31	0.32	0.750			
0.5658	36211.28	3.7490	3.7490	2.2458	6.29	0.30	0.750			
0.5728	36658.69	3.7460	3.7458	2.2463	6.27	0.28	0.750			
0.5797	37103.70	3.7430	3.7434	2.3116	6.24	0.25	0.750			
0.5867	37548.48	3.7400	3.7398	2.3474	6.21	0.22	0.750			
0.5937	37994.17	3.7370	3.7371	2.4241	6.19	0.20	0.750			
0.6013	38486.22	3.7340	3.7340	2.5252	6.17	0.18	0.750			
0.6089	38972.06	3.7310	3.7310	2.5175	6.15	0.16	0.750			
0.6165	39454.01	3.7280	3.7280	2.5202	6.13	0.14	0.750			
0.6240	39936.31	3.7250	3.7251	2.5530	6.11	0.12	0.750			
0.6317	40426.51	3.7220	3.7221	2.5657	6.09	0.10	0.750			
0.6393	40917.15	3.7190	3.7188	2.5620	6.08	0.09	0.750			
0.6473	41424.08	3.7160	3.7161	2.3899	6.06	0.07	0.750			
0.6541	41861.16	3.7130	3.7132	2.1136	6.05	0.06	0.750			
0.6597	42223.04	3.7100	3.7100	1.8285	6.03	0.04	0.750			
0.6647	42538.03	3.7070	3.7071	1.5730	6.02	0.03	0.750			
0.6690	42813.08	3.7040	3.7039	1.3994	6.01	0.02	0.750			
0.6727	43054.46	3.7010	3.7010	1.2380	6.00	0.01	0.750			
0.6762	43279.97	3.6980	3.6979	1.1491	6.00	0.01	0.750			
0.6794	43479.17	3.6950	3.6951	1.0503	5.99	0.00	0.750			
0.6823	43669.41	3.6920	3.6921	0.9868	5.99	-0.00	0.750			
0.6852	43854.21	3.6890	3.6890	0.9330	5.98	-0.01	0.750			
0.6879	44024.83	3.6860	3.6860	0.8958	5.98	-0.01	0.750			
0.6905	44193.29	3.6830	3.6830	0.8651	5.98	-0.01	0.750			
0.6931	44355.86	3.6800	3.6800	0.8315	5.97	-0.02	0.750			
0.6955	44512.87	3.6770	3.6771	0.7993	5.97	-0.02	0.750			
0.6979	44664.94	3.6740	3.6741	0.7637	5.98	-0.01	0.750			
0.7001	44809.48	3.6710	3.6710	0.7251	5.98	-0.01	0.750			
0.7023	44946.89	3.6680	3.6680	0.6892	5.98	-0.01	0.750			
0.7042	45071.76	3.6650	3.6650	0.6439	5.99	-0.00	0.750			
0.7061	45191.68	3.6620	3.6620	0.6072	5.99	-0.00	0.750			
0.7079	45304.85	3.6590	3.6590	0.5699	5.99	0.00	0.750			
0.7095	45410.78	3.6560	3.6560	0.5330	5.99	0.00	0.750			
0.7111	45509.63	3.6530	3.6530	0.4957	5.99	0.00	0.750			
0.7125	45601.75	3.6500	3.6500	0.4579	5.99	0.00	0.750			
0.7138	45685.18	3.6470	3.6470	0.4186	5.99	0.00	0.750			
0.7150	45761.83	3.6440	3.6439	0.3821	5.99	0.00	0.750			
0.7161	45831.11	3.6410	3.6411	0.3447	5.99	0.00	0.750			
0.7171	45893.73	3.6380	3.6379	0.3101	5.99	0.00	0.750			
0.7180	45949.67	3.6350	3.6350	0.2767	5.99	0.00	0.750			
0.7188	46000.76	3.6320	3.6320	0.2396	5.99	0.00	0.750			
0.7194	46043.81	3.6290	3.6289	0.2047	5.99	0.00	0.750			
0.7200	46079.84	3.6260	3.6260	0.1668	5.99	0.00	0.750			
0.7205	46109.14	3.6230	3.6233	0.1284	5.99	0.00	0.750			
0.7208	46132.34	3.6200	3.6201	0.0863	5.99	0.00	0.750			
0.7210	46145.04	3.6170	3.6166	0.0383	5.99	0.00	0.750			
0.7211	46147.73	3.6140	3.6150	-0.0101	5.99	0.00	0.750			
