Ah_balance (normalized)	Ah_balance (mAh)	Voltage - fit (V)	Voltage -  interpolate (V)	dQ/dV (1/V)	Temperature (°C)	Temperature - diff (°C)	Current (C)	R_DC 0ms (mOhm)	R_DC 50ms (mOhm)	R_DC 50 ms PEC (mOhm)
0.1797	11497.79	4.0820	4.0820	0.7989	7.76	1.79	0.750			
0.1820	11650.47	4.0790	4.0791	0.7941	7.75	1.78	0.750			
0.1845	11809.78	4.0760	4.0758	0.7785	7.74	1.77	0.750			
0.1868	11953.62	4.0730	4.0731	0.7454	7.73	1.76	0.750			
0.1889	12092.47	4.0700	4.0703	0.7230	7.72	1.75	0.750			
0.1909	12218.24	4.0670	4.0673	0.7311	7.71	1.74	0.750			
0.1931	12355.25	4.0640	4.0632	0.7621	7.70	1.73	0.750			
0.1954	12505.16	4.0610	4.0611	0.7782	7.69	1.72	0.750			
0.1978	12659.61	4.0580	4.0590	0.8047	7.68	1.71	0.750			
0.2004	12826.11	4.0550	4.0554	0.8196	7.67	1.70	0.750			
0.2029	12988.37	4.0520	4.0520	0.8236	7.65	1.68	0.750			
0.2054	13147.39	4.0490	4.0488	0.8195	7.65	1.68	0.750			
0.2077	13295.41	4.0460	4.0459	0.7837	7.64	1.67	0.750			
0.2101	13444.67	4.0430	4.0430	0.7941	7.63	1.66	0.750			
0.2125	13599.29	4.0400	4.0402	0.8021	7.63	1.66	0.750			
0.2149	13751.65	4.0370	4.0370	0.8094	7.62	1.65	0.750			
0.2173	13908.11	4.0340	4.0340	0.8158	7.62	1.65	0.750			
0.2198	14067.67	4.0310	4.0310	0.8086	7.61	1.64	0.750			
0.2222	14223.47	4.0280	4.0280	0.8173	7.60	1.63	0.750			
0.2247	14382.48	4.0250	4.0251	0.8270	7.59	1.62	0.750			
0.2272	14537.66	4.0220	4.0221	0.8228	7.58	1.61	0.750			
0.2296	14696.05	4.0190	4.0190	0.8276	7.57	1.60	0.750			
0.2321	14855.12	4.0160	4.0161	0.8305	7.56	1.59	0.750			
0.2346	15016.18	4.0130	4.0130	0.8391	7.55	1.58	0.750			
0.2372	15178.66	4.0100	4.0100	0.8441	7.54	1.57	0.750			
0.2397	15339.95	4.0070	4.0070	0.8414	7.53	1.56	0.750			
0.2422	15502.67	4.0040	4.0040	0.8437	7.53	1.56	0.750			
0.2448	15665.74	4.0010	4.0010	0.8453	7.52	1.55	0.750			
0.2473	15828.52	3.9980	3.9980	0.8481	7.51	1.54	0.750			
0.2499	15991.60	3.9950	3.9950	0.8507	7.50	1.53	0.750			
0.2524	16153.03	3.9920	3.9920	0.8517	7.49	1.52	0.750			
0.2550	16317.03	3.9890	3.9890	0.8580	7.49	1.52	0.750			
0.2575	16482.38	3.9860	3.9859	0.8632	7.48	1.51	0.750			
0.2601	16648.80	3.9830	3.9830	0.8697	7.47	1.50	0.750			
0.2628	16817.15	3.9800	3.9800	0.8751	7.46	1.49	0.750			
0.2654	16985.69	3.9770	3.9769	0.8770	7.45	1.48	0.750			
0.2680	17154.89	3.9740	3.9740	0.8805	7.44	1.47	0.750			
0.2707	17324.56	3.9710	3.9710	0.8790	7.44	1.47	0.750			
0.2733	17492.86	3.9680	3.9680	0.8823	7.43	1.46	0.750			
0.2760	17661.97	3.9650	3.9650	0.8855	7.42	1.45	0.750			
0.2786	17830.65	3.9620	3.9619	0.8880	7.41	1.44	0.750			
0.2813	18002.48	3.9590	3.9590	0.8920	7.40	1.43	0.750			
0.2840	18174.35	3.9560	3.9560	0.9025	7.39	1.42	0.750			
0.2867	18348.19	3.9530	3.9530	0.9097	7.38	1.41	0.750			
0.2894	18523.72	3.9500	3.9500	0.9178	7.37	1.40	0.750			
0.2922	18701.19	3.9470	3.9470	0.9216	7.36	1.39	0.750			
0.2950	18879.91	3.9440	3.9440	0.9203	7.34	1.37	0.750			
0.2977	19055.29	3.9410	3.9411	0.9273	7.33	1.36	0.750			
0.3005	19233.39	3.9380	3.9381	0.9341	7.32	1.35	0.750			
0.3033	19411.64	3.9350	3.9347	0.9409	7.31	1.34	0.750			
0.3062	19593.61	3.9320	3.9321	0.9479	7.30	1.33	0.750			
0.3090	19776.36	3.9290	3.9290	0.9574	7.29	1.32	0.750			
0.3119	19963.13	3.9260	3.9261	0.9727	7.28	1.31	0.750			
0.3148	20149.27	3.9230	3.9230	0.9745	7.27	1.30	0.750			
0.3178	20338.77	3.9200	3.9200	0.9764	7.26	1.29	0.750			
0.3207	20526.34	3.9170	3.9170	0.9878	7.25	1.28	0.750			
0.3237	20715.97	3.9140	3.9141	0.9995	7.23	1.26	0.750			
0.3267	20909.24	3.9110	3.9110	1.0163	7.22	1.25	0.750			
0.3298	21106.97	3.9080	3.9080	1.0134	7.21	1.24	0.750			
0.3328	21301.59	3.9050	3.9050	1.0279	7.20	1.23	0.750			
0.3359	21500.75	3.9020	3.9021	1.0406	7.19	1.22	0.750			
0.3391	21702.23	3.8990	3.8991	1.0513	7.18	1.21	0.750			
0.3423	21905.11	3.8960	3.8959	1.0508	7.17	1.20	0.750			
0.3454	22105.91	3.8930	3.8930	1.0679	7.15	1.18	0.750			
0.3486	22310.69	3.8900	3.8901	1.0814	7.14	1.17	0.750			
0.3519	22522.56	3.8870	3.8869	1.0943	7.13	1.16	0.750			
0.3552	22733.63	3.8840	3.8841	1.0880	7.11	1.14	0.750			
0.3585	22943.06	3.8810	3.8811	1.1125	7.10	1.13	0.750			
0.3618	23157.59	3.8780	3.8780	1.1296	7.09	1.12	0.750			
0.3653	23379.37	3.8750	3.8747	1.1406	7.07	1.10	0.750			
0.3687	23596.66	3.8720	3.8721	1.1483	7.06	1.09	0.750			
0.3722	23823.39	3.8690	3.8690	1.1525	7.04	1.07	0.750			
0.3757	24046.00	3.8660	3.8661	1.1557	7.02	1.05	0.750			
0.3792	24267.31	3.8630	3.8629	1.1480	7.01	1.04	0.750			
0.3826	24483.23	3.8600	3.8601	1.1692	6.99	1.02	0.750			
0.3860	24704.33	3.8570	3.8569	1.1921	6.98	1.01	0.750			
0.3897	24940.66	3.8540	3.8538	1.2081	6.97	1.00	0.750			
0.3933	25174.16	3.8510	3.8511	1.2424	6.95	0.98	0.750			
0.3972	25422.73	3.8480	3.8481	1.2760	6.93	0.96	0.750			
0.4010	25665.14	3.8450	3.8451	1.3163	6.91	0.94	0.750			
0.4050	25918.46	3.8420	3.8421	1.3595	6.89	0.92	0.750			
0.4091	26181.13	3.8390	3.8390	1.4007	6.88	0.91	0.750	0.392	0.933	
0.4134	26457.76	3.8360	3.8362	1.4313	6.86	0.89	0.750			
0.4178	26740.16	3.8330	3.8331	1.4561	6.84	0.87	0.750			
0.4222	27022.70	3.8300	3.8301	1.4771	6.83	0.86	0.750			
0.4267	27310.52	3.8270	3.8270	1.4803	6.81	0.84	0.750			
0.4311	27588.90	3.8240	3.8240	1.5091	6.79	0.82	0.750			
0.4356	27879.17	3.8210	3.8208	1.5296	6.77	0.80	0.750			
0.4402	28174.44	3.8180	3.8179	1.5548	6.75	0.78	0.750			
0.4450	28480.19	3.8150	3.8152	1.5770	6.73	0.76	0.750			
0.4497	28782.43	3.8120	3.8120	1.6200	6.71	0.74	0.750			
0.4546	29092.46	3.8090	3.8090	1.6521	6.69	0.72	0.750			
0.4596	29414.05	3.8060	3.8058	1.6747	6.66	0.69	0.750			
0.4647	29740.11	3.8030	3.8032	1.7156	6.64	0.67	0.750			
0.4699	30075.38	3.8000	3.8002	1.7334	6.61	0.64	0.750			
0.4752	30409.69	3.7970	3.7971	1.7863	6.59	0.62	0.750			
0.4806	30761.47	3.7940	3.7941	1.8122	6.56	0.59	0.750			
0.4860	31106.37	3.7910	3.7909	1.8391	6.53	0.56	0.750			
0.4916	31460.24	3.7880	3.7882	1.8597	6.51	0.54	0.750			
0.4972	31821.28	3.7850	3.7847	1.8816	6.49	0.52	0.750			
0.5028	32181.47	3.7820	3.7820	1.9154	6.47	0.50	0.750			
0.5087	32554.74	3.7790	3.7790	1.9352	6.45	0.48	0.750			
0.5147	32941.76	3.7760	3.7759	1.9374	6.42	0.45	0.750			
0.5206	33316.57	3.7730	3.7732	1.9446	6.39	0.42	0.750			
0.5264	33690.10	3.7700	3.7701	1.9813	6.36	0.39	0.750			
0.5323	34067.03	3.7670	3.7667	2.0257	6.33	0.36	0.750			
0.5386	34468.71	3.7640	3.7642	2.0555	6.30	0.33	0.750			
0.5449	34873.00	3.7610	3.7612	2.1106	6.27	0.30	0.750			
0.5511	35268.04	3.7580	3.7580	2.0392	6.24	0.27	0.750			
0.5571	35657.27	3.7550	3.7550	2.0726	6.22	0.25	0.750			
0.5635	36063.83	3.7520	3.7517	2.1512	6.20	0.23	0.750			
0.5701	36487.12	3.7490	3.7489	2.1649	6.18	0.21	0.750			
0.5766	36903.48	3.7460	3.7458	2.2395	6.16	0.19	0.750			
0.5834	37339.45	3.7430	3.7428	2.2606	6.13	0.16	0.750			
0.5905	37793.82	3.7400	3.7400	2.3763	6.11	0.14	0.750			
0.5977	38250.19	3.7370	3.7368	2.3706	6.09	0.12	0.750			
0.6046	38696.24	3.7340	3.7339	2.4035	6.07	0.10	0.750			
0.6119	39164.45	3.7310	3.7309	2.4994	6.05	0.08	0.750			
0.6198	39669.42	3.7280	3.7279	2.4902	6.03	0.06	0.750			
0.6273	40148.58	3.7250	3.7252	2.4812	6.01	0.04	0.750			
0.6346	40614.87	3.7220	3.7217	2.3727	6.00	0.03	0.750			
0.6415	41058.68	3.7190	3.7188	2.2419	5.99	0.02	0.750			
0.6483	41491.47	3.7160	3.7159	2.1767	5.98	0.01	0.750			
0.6546	41897.35	3.7130	3.7127	2.0184	5.97	-0.00	0.750			
0.6603	42262.17	3.7100	3.7099	1.8000	5.96	-0.01	0.750			
0.6655	42590.20	3.7070	3.7069	1.6046	5.95	-0.02	0.750			
0.6699	42873.24	3.7040	3.7040	1.4378	5.95	-0.02	0.750			
0.6738	43121.69	3.7010	3.7011	1.2733	5.94	-0.03	0.750			
0.6773	43346.14	3.6980	3.6981	1.1567	5.94	-0.03	0.750			
0.6806	43558.61	3.6950	3.6950	1.0844	5.94	-0.03	0.750			
0.6836	43751.44	3.6920	3.6920	1.0069	5.94	-0.03	0.750			
0.6865	43938.22	3.6890	3.6890	0.9559	5.94	-0.03	0.750			
0.6893	44115.95	3.6860	3.6860	0.9109	5.94	-0.03	0.750			
0.6920	44286.17	3.6830	3.6829	0.8731	5.94	-0.03	0.750			
0.6945	44450.03	3.6800	3.6800	0.8400	5.94	-0.03	0.750			
0.6970	44607.75	3.6770	3.6770	0.8098	5.94	-0.03	0.750			
0.6994	44760.46	3.6740	3.6740	0.7779	5.95	-0.02	0.750			
0.7017	44909.09	3.6710	3.6710	0.7502	5.95	-0.02	0.750			
0.7039	45049.60	3.6680	3.6679	0.7140	5.95	-0.02	0.750			
0.7060	45183.04	3.6650	3.6651	0.6775	5.95	-0.02	0.750			
0.7080	45309.83	3.6620	3.6620	0.6434	5.96	-0.01	0.750			
0.7098	45429.76	3.6590	3.6590	0.6049	5.96	-0.01	0.750			
0.7116	45542.80	3.6560	3.6560	0.5666	5.96	-0.01	0.750			
0.7132	45647.22	3.6530	3.6529	0.5285	5.97	-0.00	0.750			
0.7148	45745.08	3.6500	3.6501	0.4937	5.97	-0.00	0.750			
0.7162	45836.52	3.6470	3.6471	0.4592	5.97	0.00	0.750			
0.7175	45920.82	3.6440	3.6440	0.4241	5.97	0.00	0.750			
0.7187	45999.21	3.6410	3.6410	0.3888	5.97	0.00	0.750			
0.7199	46071.11	3.6380	3.6380	0.3563	5.98	0.01	0.750			
0.7209	46135.84	3.6350	3.6350	0.3199	5.98	0.01	0.750			
0.7218	46193.82	3.6320	3.6320	0.2871	5.98	0.01	0.750			
0.7226	46246.42	3.6290	3.6289	0.2492	5.98	0.01	0.750			
0.7233	46291.15	3.6260	3.6259	0.2136	5.98	0.01	0.750			
0.7239	46329.33	3.6230	3.6230	0.1775	5.98	0.01	0.750			
0.7244	46360.89	3.6200	3.6203	0.1393	5.98	0.01	0.750			
0.7248	46384.47	3.6170	3.6172	0.0974	5.98	0.01	0.750			
0.7250	46399.46	3.6140	3.6146	0.0530	5.98	0.01	0.750			
0.7251	46405.91	3.6110	3.6123	-0.0034	5.98	0.01	0.750			
