Ah_balance (normalized)	Ah_balance (mAh)	Voltage - fit (V)	Voltage -  interpolate (V)	dQ/dV (1/V)	Temperature (°C)	Temperature - diff (°C)	Current (C)	R_DC 0ms (mOhm)	R_DC 50ms (mOhm)	R_DC 50 ms PEC (mOhm)
0.1785	11421.08	4.0830	4.0831	0.7996	7.21	1.22	0.750			
0.1809	11575.11	4.0800	4.0800	0.7972	7.21	1.22	0.750			
0.1833	11730.53	4.0770	4.0768	0.7763	7.21	1.22	0.750			
0.1855	11870.81	4.0740	4.0741	0.7633	7.20	1.21	0.750			
0.1877	12013.80	4.0710	4.0712	0.7589	7.20	1.21	0.750			
0.1900	12157.21	4.0680	4.0677	0.7606	7.20	1.21	0.750			
0.1923	12304.36	4.0650	4.0651	0.7688	7.20	1.21	0.750			
0.1946	12452.62	4.0620	4.0620	0.7599	7.19	1.20	0.750			
0.1968	12597.83	4.0590	4.0592	0.7739	7.18	1.19	0.750			
0.1992	12747.67	4.0560	4.0561	0.7786	7.18	1.19	0.750			
0.2015	12893.43	4.0530	4.0532	0.8085	7.17	1.18	0.750			
0.2038	13046.04	4.0500	4.0504	0.8276	7.17	1.18	0.750			
0.2064	13210.92	4.0470	4.0470	0.8563	7.16	1.17	0.750			
0.2091	13382.74	4.0440	4.0436	0.8862	7.16	1.17	0.750			
0.2119	13561.17	4.0410	4.0418	0.8875	7.16	1.17	0.750			
0.2146	13731.84	4.0380	4.0384	0.8690	7.15	1.16	0.750			
0.2172	13900.93	4.0350	4.0351	0.8555	7.14	1.15	0.750			
0.2198	14065.68	4.0320	4.0319	0.8409	7.14	1.15	0.750			
0.2220	14210.58	4.0290	4.0290	0.8039	7.13	1.14	0.750			
0.2245	14366.97	4.0260	4.0259	0.8121	7.12	1.13	0.750			
0.2269	14520.55	4.0230	4.0230	0.8127	7.11	1.12	0.750			
0.2293	14678.25	4.0200	4.0200	0.8195	7.11	1.12	0.750			
0.2319	14839.09	4.0170	4.0170	0.8220	7.10	1.11	0.750			
0.2343	14995.71	4.0140	4.0140	0.8269	7.10	1.11	0.750			
0.2368	15154.49	4.0110	4.0110	0.8312	7.10	1.11	0.750			
0.2393	15313.74	4.0080	4.0080	0.8320	7.09	1.10	0.750			
0.2418	15473.73	4.0050	4.0051	0.8377	7.09	1.10	0.750			
0.2443	15636.50	4.0020	4.0020	0.8369	7.08	1.09	0.750			
0.2468	15797.88	3.9990	3.9990	0.8385	7.07	1.08	0.750			
0.2494	15958.99	3.9960	3.9960	0.8446	7.06	1.07	0.750			
0.2519	16118.86	3.9930	3.9930	0.8464	7.05	1.06	0.750			
0.2544	16282.07	3.9900	3.9900	0.8533	7.05	1.06	0.750			
0.2570	16447.14	3.9870	3.9871	0.8566	7.04	1.05	0.750			
0.2596	16611.39	3.9840	3.9840	0.8633	7.04	1.05	0.750			
0.2622	16779.88	3.9810	3.9809	0.8708	7.04	1.05	0.750			
0.2648	16946.04	3.9780	3.9778	0.8712	7.03	1.04	0.750			
0.2674	17112.76	3.9750	3.9750	0.8749	7.02	1.03	0.750			
0.2700	17281.39	3.9720	3.9721	0.8790	7.02	1.03	0.750			
0.2727	17451.60	3.9690	3.9689	0.8805	7.01	1.02	0.750			
0.2753	17621.07	3.9660	3.9660	0.8853	7.00	1.01	0.750			
0.2780	17789.90	3.9630	3.9629	0.8901	6.99	1.00	0.750			
0.2807	17962.57	3.9600	3.9599	0.8926	6.98	0.99	0.750			
0.2833	18134.28	3.9570	3.9570	0.8980	6.97	0.98	0.750			
0.2860	18306.37	3.9540	3.9541	0.9019	6.96	0.97	0.750			
0.2888	18480.28	3.9510	3.9510	0.9082	6.96	0.97	0.750			
0.2915	18655.97	3.9480	3.9480	0.9148	6.95	0.96	0.750			
0.2942	18830.92	3.9450	3.9449	0.9085	6.94	0.95	0.750			
0.2969	19003.37	3.9420	3.9421	0.9168	6.93	0.94	0.750			
0.2997	19181.35	3.9390	3.9390	0.9277	6.92	0.93	0.750			
0.3025	19358.49	3.9360	3.9357	0.9330	6.91	0.92	0.750			
0.3053	19539.66	3.9330	3.9331	0.9377	6.91	0.92	0.750			
0.3081	19720.17	3.9300	3.9301	0.9491	6.90	0.91	0.750			
0.3110	19905.54	3.9270	3.9270	0.9599	6.90	0.91	0.750			
0.3139	20088.10	3.9240	3.9241	0.9619	6.89	0.90	0.750			
0.3168	20275.99	3.9210	3.9211	0.9663	6.89	0.90	0.750			
0.3197	20462.35	3.9180	3.9180	0.9794	6.88	0.89	0.750			
0.3227	20650.33	3.9150	3.9151	0.9901	6.87	0.88	0.750			
0.3257	20842.48	3.9120	3.9120	1.0002	6.86	0.87	0.750			
0.3287	21036.62	3.9090	3.9091	1.0007	6.85	0.86	0.750			
0.3317	21228.57	3.9060	3.9060	1.0112	6.84	0.85	0.750			
0.3347	21420.90	3.9030	3.9032	1.0236	6.84	0.85	0.750			
0.3378	21619.61	3.9000	3.9000	1.0415	6.83	0.84	0.750			
0.3410	21822.50	3.8970	3.8967	1.0411	6.83	0.84	0.750			
0.3441	22022.64	3.8940	3.8941	1.0523	6.82	0.83	0.750			
0.3472	22221.01	3.8910	3.8912	1.0843	6.81	0.82	0.750			
0.3505	22430.59	3.8880	3.8880	1.1219	6.81	0.82	0.750			
0.3539	22649.15	3.8850	3.8848	1.1313	6.80	0.81	0.750			
0.3574	22872.12	3.8820	3.8820	1.1540	6.78	0.79	0.750			
0.3610	23102.37	3.8790	3.8793	1.1743	6.77	0.78	0.750			
0.3646	23333.27	3.8760	3.8758	1.1774	6.75	0.76	0.750			
0.3681	23558.06	3.8730	3.8730	1.1698	6.74	0.75	0.750			
0.3715	23774.09	3.8700	3.8701	1.1590	6.74	0.75	0.750			
0.3750	23997.08	3.8670	3.8671	1.1768	6.73	0.74	0.750			
0.3785	24225.16	3.8640	3.8640	1.1851	6.72	0.73	0.750			
0.3821	24453.98	3.8610	3.8610	1.2065	6.71	0.72	0.750			
0.3857	24687.97	3.8580	3.8580	1.2264	6.69	0.70	0.750			
0.3895	24926.02	3.8550	3.8549	1.2335	6.68	0.69	0.750			
0.3932	25161.93	3.8520	3.8521	1.2624	6.67	0.68	0.750			
0.3970	25405.38	3.8490	3.8491	1.2921	6.66	0.67	0.750			
0.4009	25656.97	3.8460	3.8445	1.3116	6.65	0.66	0.750	0.397	0.908	
0.4049	25911.15	3.8430	3.8432	1.3381	6.64	0.65	0.750			
0.4090	26173.59	3.8400	3.8401	1.3708	6.63	0.64	0.750			
0.4132	26444.28	3.8370	3.8370	1.3864	6.62	0.63	0.750			
0.4173	26707.78	3.8340	3.8341	1.3957	6.60	0.61	0.750			
0.4215	26977.21	3.8310	3.8311	1.4255	6.59	0.60	0.750			
0.4259	27254.84	3.8280	3.8280	1.4472	6.58	0.59	0.750			
0.4302	27533.16	3.8250	3.8251	1.4705	6.56	0.57	0.750			
0.4347	27818.04	3.8220	3.8221	1.4912	6.55	0.56	0.750			
0.4391	28105.52	3.8190	3.8190	1.5251	6.53	0.54	0.750			
0.4438	28400.13	3.8160	3.8161	1.5432	6.52	0.53	0.750			
0.4484	28700.50	3.8130	3.8128	1.5874	6.50	0.51	0.750			
0.4533	29010.13	3.8100	3.8102	1.6033	6.49	0.50	0.750			
0.4581	29319.91	3.8070	3.8070	1.6200	6.47	0.48	0.750			
0.4631	29637.52	3.8040	3.8041	1.6554	6.46	0.47	0.750			
0.4680	29949.62	3.8010	3.8010	1.6687	6.44	0.45	0.750			
0.4730	30272.91	3.7980	3.7980	1.6983	6.43	0.44	0.750			
0.4782	30604.52	3.7950	3.7950	1.7105	6.42	0.43	0.750			
0.4834	30934.75	3.7920	3.7921	1.7422	6.40	0.41	0.750			
0.4887	31275.48	3.7890	3.7890	1.7590	6.39	0.40	0.750			
0.4939	31610.63	3.7860	3.7862	1.7862	6.37	0.38	0.750			
0.4993	31957.65	3.7830	3.7832	1.7932	6.36	0.37	0.750			
0.5047	32303.63	3.7800	3.7799	1.8129	6.34	0.35	0.750			
0.5101	32648.41	3.7770	3.7771	1.8096	6.33	0.34	0.750			
0.5156	32998.62	3.7740	3.7741	1.7975	6.31	0.32	0.750			
0.5211	33350.68	3.7710	3.7712	1.8246	6.29	0.30	0.750			
0.5267	33708.01	3.7680	3.7678	1.8465	6.27	0.28	0.750			
0.5322	34058.65	3.7650	3.7649	1.8514	6.26	0.27	0.750			
0.5376	34408.67	3.7620	3.7619	1.8665	6.25	0.26	0.750			
0.5433	34772.71	3.7590	3.7588	1.9133	6.23	0.24	0.750			
0.5491	35144.50	3.7560	3.7560	1.9336	6.22	0.23	0.750			
0.5551	35523.72	3.7530	3.7530	1.9866	6.20	0.21	0.750			
0.5611	35909.92	3.7500	3.7502	2.0321	6.18	0.19	0.750			
0.5672	36303.84	3.7470	3.7468	2.1241	6.16	0.17	0.750			
0.5737	36714.38	3.7440	3.7441	2.1004	6.14	0.15	0.750			
0.5801	37129.17	3.7410	3.7413	2.1675	6.13	0.14	0.750			
0.5865	37533.44	3.7380	3.7379	2.1782	6.12	0.13	0.750			
0.5931	37961.37	3.7350	3.7348	2.1722	6.10	0.11	0.750			
0.5998	38388.27	3.7320	3.7323	2.2358	6.08	0.09	0.750			
0.6065	38812.91	3.7290	3.7288	2.1852	6.06	0.07	0.750			
0.6129	39222.98	3.7260	3.7261	2.1745	6.05	0.06	0.750			
0.6194	39642.38	3.7230	3.7229	2.2160	6.04	0.05	0.750			
0.6261	40069.68	3.7200	3.7201	2.1686	6.02	0.03	0.750			
0.6326	40485.44	3.7170	3.7172	2.0355	6.01	0.02	0.750			
0.6384	40855.81	3.7140	3.7143	1.8209	6.00	0.01	0.750			
0.6434	41180.65	3.7110	3.7111	1.6367	6.00	0.01	0.750			
0.6480	41470.94	3.7080	3.7081	1.4561	5.99	0.00	0.750			
0.6521	41737.11	3.7050	3.7048	1.3249	5.99	0.00	0.750			
0.6557	41967.42	3.7020	3.7021	1.1909	5.99	-0.00	0.750			
0.6591	42183.98	3.6990	3.6990	1.1015	5.98	-0.01	0.750			
0.6622	42380.62	3.6960	3.6960	1.0325	5.98	-0.01	0.750			
0.6652	42571.15	3.6930	3.6927	0.9757	5.97	-0.02	0.750			
0.6680	42749.52	3.6900	3.6901	0.9268	5.97	-0.02	0.750			
0.6707	42922.99	3.6870	3.6870	0.8913	5.97	-0.02	0.750			
0.6733	43091.46	3.6840	3.6841	0.8592	5.97	-0.02	0.750			
0.6758	43253.30	3.6810	3.6811	0.8270	5.97	-0.02	0.750			
0.6782	43406.63	3.6780	3.6778	0.7967	5.97	-0.02	0.750			
0.6806	43555.99	3.6750	3.6749	0.7666	5.97	-0.02	0.750			
0.6828	43701.68	3.6720	3.6720	0.7341	5.97	-0.02	0.750			
0.6850	43839.04	3.6690	3.6690	0.7018	5.96	-0.03	0.750			
0.6871	43972.40	3.6660	3.6661	0.6733	5.96	-0.03	0.750			
0.6890	44098.72	3.6630	3.6629	0.6444	5.96	-0.03	0.750			
0.6909	44218.08	3.6600	3.6600	0.6094	5.96	-0.03	0.750			
0.6927	44332.03	3.6570	3.6571	0.5773	5.97	-0.02	0.750			
0.6944	44440.64	3.6540	3.6540	0.5474	5.97	-0.02	0.750			
0.6960	44543.65	3.6510	3.6508	0.5150	5.97	-0.02	0.750			
0.6975	44637.81	3.6480	3.6480	0.4820	5.98	-0.01	0.750			
0.6989	44727.29	3.6450	3.6450	0.4472	5.98	-0.01	0.750			
0.7002	44810.28	3.6420	3.6420	0.4162	5.98	-0.01	0.750			
0.7014	44887.82	3.6390	3.6390	0.3873	5.99	-0.00	0.750			
0.7025	44959.46	3.6360	3.6360	0.3537	5.99	-0.00	0.750			
0.7035	45024.08	3.6330	3.6332	0.3201	5.99	0.00	0.750			
0.7044	45084.26	3.6300	3.6299	0.2843	5.99	0.00	0.750			
0.7052	45135.31	3.6270	3.6270	0.2457	6.00	0.01	0.750			
0.7059	45180.50	3.6240	3.6237	0.2101	6.00	0.01	0.750			
0.7065	45217.17	3.6210	3.6213	0.1685	6.00	0.01	0.750			
0.7069	45244.44	3.6180	3.6184	0.1242	6.00	0.01	0.750			
0.7073	45265.32	3.6150	3.6142	0.0809	6.00	0.01	0.750			
0.7075	45279.35	3.6090	3.6127	-0.0295	6.00	0.01	0.750			
0.7075	45279.78	3.6120	3.6125	0.0250	6.00	0.01	0.750			
