Ah_balance (normalized)	Ah_balance (mAh)	Voltage - fit (V)	Voltage -  interpolate (V)	dQ/dV (1/V)	Temperature (°C)	Temperature - diff (°C)	Current (C)	R_DC 0ms (mOhm)	R_DC 50ms (mOhm)	R_DC 50 ms PEC (mOhm)
0.0960	6142.31	4.0040	4.0032	-0.0495	6.00	0.01	-0.750			
0.0962	6156.38	4.0010	4.0005	-0.0884	5.99	0.00	-0.750			
0.0965	6176.95	3.9980	3.9977	-0.1183	5.99	0.00	-0.750			
0.0969	6202.31	3.9950	3.9950	-0.1458	5.99	0.00	-0.750			
0.0974	6233.14	3.9920	3.9920	-0.1720	5.99	0.00	-0.750			
0.0979	6268.79	3.9890	3.9890	-0.1967	5.99	0.00	-0.750			
0.0986	6310.12	3.9860	3.9861	-0.2221	5.99	0.00	-0.750			
0.0993	6354.84	3.9830	3.9831	-0.2449	5.99	-0.00	-0.750			
0.1001	6403.95	3.9800	3.9800	-0.2676	5.99	-0.00	-0.750			
0.1009	6457.28	3.9770	3.9771	-0.2923	5.99	-0.00	-0.750			
0.1018	6515.54	3.9740	3.9739	-0.3163	5.99	-0.00	-0.750			
0.1028	6578.82	3.9710	3.9710	-0.3405	5.98	-0.01	-0.750			
0.1039	6646.64	3.9680	3.9680	-0.3648	5.98	-0.01	-0.750			
0.1050	6718.96	3.9650	3.9651	-0.3908	5.98	-0.01	-0.750			
0.1062	6796.50	3.9620	3.9620	-0.4159	5.98	-0.01	-0.750			
0.1075	6879.05	3.9590	3.9589	-0.4400	5.98	-0.01	-0.750			
0.1089	6966.46	3.9560	3.9560	-0.4605	5.97	-0.02	-0.750			
0.1103	7057.30	3.9530	3.9530	-0.4838	5.97	-0.02	-0.750			
0.1118	7152.45	3.9500	3.9501	-0.5044	5.97	-0.02	-0.750			
0.1133	7251.23	3.9470	3.9470	-0.5246	5.97	-0.02	-0.750			
0.1149	7353.67	3.9440	3.9439	-0.5429	5.97	-0.02	-0.750			
0.1166	7459.94	3.9410	3.9411	-0.5615	5.97	-0.02	-0.750			
0.1183	7570.62	3.9380	3.9380	-0.5808	5.97	-0.02	-0.750			
0.1201	7683.69	3.9350	3.9350	-0.5963	5.97	-0.02	-0.750			
0.1219	7800.12	3.9320	3.9320	-0.6075	5.97	-0.02	-0.750			
0.1237	7918.94	3.9290	3.9290	-0.6177	5.97	-0.02	-0.750			
0.1256	8038.31	3.9260	3.9261	-0.6308	5.97	-0.02	-0.750			
0.1275	8160.65	3.9230	3.9230	-0.6421	5.98	-0.01	-0.750			
0.1294	8283.63	3.9200	3.9200	-0.6574	5.98	-0.01	-0.750			
0.1314	8412.61	3.9170	3.9170	-0.6655	5.98	-0.01	-0.750			
0.1335	8542.22	3.9140	3.9140	-0.6745	5.98	-0.01	-0.750			
0.1355	8673.55	3.9110	3.9110	-0.6818	5.99	-0.00	-0.750			
0.1376	8805.88	3.9080	3.9079	-0.6882	5.99	0.00	-0.750			
0.1396	8936.82	3.9050	3.9050	-0.6912	5.99	0.00	-0.750			
0.1417	9069.75	3.9020	3.9020	-0.6954	6.00	0.01	-0.750			
0.1438	9203.45	3.8990	3.8990	-0.6974	6.00	0.01	-0.750			
0.1459	9339.48	3.8960	3.8960	-0.7068	6.00	0.01	-0.750			
0.1481	9475.98	3.8930	3.8930	-0.7079	6.01	0.02	-0.750			
0.1502	9611.89	3.8900	3.8899	-0.7098	6.01	0.02	-0.750			
0.1523	9748.18	3.8870	3.8870	-0.7137	6.02	0.03	-0.750			
0.1544	9884.32	3.8840	3.8841	-0.7227	6.03	0.04	-0.750			
0.1566	10024.73	3.8810	3.8809	-0.7279	6.03	0.04	-0.750			
0.1588	10165.95	3.8780	3.8780	-0.7304	6.04	0.05	-0.750			
0.1610	10306.46	3.8750	3.8750	-0.7322	6.05	0.06	-0.750			
0.1632	10447.73	3.8720	3.8721	-0.7363	6.05	0.06	-0.750			
0.1655	10588.92	3.8690	3.8690	-0.7381	6.06	0.07	-0.750			
0.1677	10730.43	3.8660	3.8659	-0.7418	6.06	0.07	-0.750			
0.1699	10873.37	3.8630	3.8630	-0.7405	6.06	0.07	-0.750			
0.1722	11018.45	3.8600	3.8600	-0.7455	6.07	0.08	-0.750			
0.1744	11161.22	3.8570	3.8572	-0.7419	6.07	0.08	-0.750			
0.1766	11303.02	3.8540	3.8540	-0.7414	6.08	0.09	-0.750			
0.1788	11444.02	3.8510	3.8510	-0.7428	6.09	0.10	-0.750			
0.1810	11584.99	3.8480	3.8479	-0.7420	6.09	0.10	-0.750			
0.1833	11729.04	3.8450	3.8450	-0.7496	6.10	0.11	-0.750			
0.1855	11873.78	3.8420	3.8420	-0.7476	6.11	0.12	-0.750			
0.1878	12018.50	3.8390	3.8390	-0.7508	6.11	0.12	-0.750			
0.1900	12162.19	3.8360	3.8360	-0.7505	6.12	0.13	-0.750			
0.1923	12304.15	3.8330	3.8330	-0.7491	6.12	0.13	-0.750			
0.1945	12448.00	3.8300	3.8300	-0.7512	6.12	0.13	-0.750			
0.1968	12593.32	3.8270	3.8269	-0.7540	6.13	0.14	-0.750			
0.1990	12738.93	3.8240	3.8241	-0.7527	6.13	0.14	-0.750			
0.2013	12883.79	3.8210	3.8210	-0.7553	6.14	0.15	-0.750			
0.2036	13027.65	3.8180	3.8181	-0.7562	6.14	0.15	-0.750			
0.2058	13173.64	3.8150	3.8149	-0.7579	6.15	0.16	-0.750			
0.2081	13318.34	3.8120	3.8120	-0.7563	6.16	0.17	-0.750			
0.2104	13464.49	3.8090	3.8089	-0.7557	6.17	0.18	-0.750			
0.2127	13610.41	3.8060	3.8061	-0.7589	6.17	0.18	-0.750			
0.2149	13755.35	3.8030	3.8030	-0.7624	6.18	0.19	-0.750			
0.2172	13899.87	3.8000	3.8000	-0.7600	6.19	0.20	-0.750			
0.2195	14046.05	3.7970	3.7969	-0.7572	6.20	0.21	-0.750			
0.2218	14193.66	3.7940	3.7940	-0.7615	6.20	0.21	-0.750			
0.2241	14340.60	3.7910	3.7912	-0.7640	6.21	0.22	-0.750			
0.2264	14487.37	3.7880	3.7880	-0.7623	6.22	0.23	-0.750			
0.2286	14632.14	3.7850	3.7850	-0.7612	6.22	0.23	-0.750			
0.2309	14777.97	3.7820	3.7819	-0.7631	6.23	0.24	-0.750			
0.2332	14924.97	3.7790	3.7791	-0.7680	6.24	0.25	-0.750			
0.2355	15073.87	3.7760	3.7759	-0.7696	6.25	0.26	-0.750			
0.2379	15222.84	3.7730	3.7730	-0.7705	6.25	0.26	-0.750			
0.2401	15369.03	3.7700	3.7700	-0.7756	6.26	0.27	-0.750			
0.2425	15518.66	3.7670	3.7671	-0.7753	6.27	0.28	-0.750			
0.2448	15667.32	3.7640	3.7639	-0.7739	6.28	0.29	-0.750			
0.2471	15815.80	3.7610	3.7610	-0.7770	6.28	0.29	-0.750			
0.2494	15964.34	3.7580	3.7582	-0.7813	6.29	0.30	-0.750			
0.2519	16119.14	3.7550	3.7549	-0.7617	6.30	0.31	-0.750			
0.2542	16267.06	3.7520	3.7520	-0.7441	6.31	0.32	-0.750			
0.2563	16405.09	3.7490	3.7493	-0.7274	6.31	0.32	-0.750			
0.2585	16541.41	3.7460	3.7466	-0.7220	6.32	0.33	-0.750			
0.2605	16673.72	3.7430	3.7426	-0.7330	6.33	0.34	-0.750			
0.2626	16807.43	3.7400	3.7399	-0.7445	6.33	0.34	-0.750			
0.2649	16953.37	3.7370	3.7370	-0.7707	6.34	0.35	-0.750			
0.2674	17113.00	3.7340	3.7339	-0.8080	6.34	0.35	-0.750			
0.2698	17268.52	3.7310	3.7311	-0.8126	6.34	0.35	-0.750			
0.2723	17429.78	3.7280	3.7281	-0.8230	6.35	0.36	-0.750			
0.2748	17589.13	3.7250	3.7250	-0.8200	6.35	0.36	-0.750			
0.2773	17744.93	3.7220	3.7219	-0.8206	6.36	0.37	-0.750			
0.2797	17902.13	3.7190	3.7191	-0.8278	6.36	0.37	-0.750			
0.2822	18061.28	3.7160	3.7159	-0.8381	6.36	0.37	-0.750			
0.2847	18223.29	3.7130	3.7129	-0.8457	6.37	0.38	-0.750			
0.2873	18386.59	3.7100	3.7102	-0.8541	6.37	0.38	-0.750			
0.2899	18551.19	3.7070	3.7069	-0.8706	6.38	0.39	-0.750			
0.2925	18721.51	3.7040	3.7039	-0.8726	6.38	0.39	-0.750			
0.2951	18887.15	3.7010	3.7010	-0.8710	6.38	0.39	-0.750			
0.2978	19057.97	3.6980	3.6979	-0.8855	6.39	0.40	-0.750			
0.3004	19228.02	3.6950	3.6950	-0.8852	6.39	0.40	-0.750			
0.3031	19398.96	3.6920	3.6919	-0.8918	6.40	0.41	-0.750			
0.3057	19567.61	3.6890	3.6891	-0.8965	6.41	0.42	-0.750			
0.3084	19737.37	3.6860	3.6861	-0.9098	6.41	0.42	-0.750			
0.3112	19919.03	3.6830	3.6831	-0.9272	6.42	0.43	-0.750			
0.3140	20096.71	3.6800	3.6799	-0.9425	6.42	0.43	-0.750			
0.3169	20280.44	3.6770	3.6771	-0.9484	6.43	0.44	-0.750			
0.3198	20465.50	3.6740	3.6740	-0.9603	6.43	0.44	-0.750			
0.3227	20651.18	3.6710	3.6709	-0.9622	6.44	0.45	-0.750			
0.3256	20835.55	3.6680	3.6679	-0.9660	6.44	0.45	-0.750			
0.3285	21020.88	3.6650	3.6650	-0.9785	6.44	0.45	-0.750			
0.3314	21212.43	3.6620	3.6620	-0.9904	6.45	0.46	-0.750			
0.3344	21401.68	3.6590	3.6588	-0.9935	6.45	0.46	-0.750			
0.3374	21594.57	3.6560	3.6561	-1.0113	6.45	0.46	-0.750			
0.3404	21788.58	3.6530	3.6530	-1.0190	6.46	0.47	-0.750			
0.3435	21985.86	3.6500	3.6500	-1.0226	6.46	0.47	-0.750			
0.3466	22181.11	3.6470	3.6469	-1.0218	6.47	0.48	-0.750			
0.3497	22378.75	3.6440	3.6444	-1.0455	6.47	0.48	-0.750			
0.3528	22580.22	3.6410	3.6408	-1.0571	6.48	0.49	-0.750			
0.3560	22783.82	3.6380	3.6379	-1.0691	6.48	0.49	-0.750			
0.3592	22991.67	3.6350	3.6350	-1.0794	6.49	0.50	-0.750			
0.3625	23200.58	3.6320	3.6322	-1.1010	6.49	0.50	-0.750			
0.3659	23416.57	3.6290	3.6290	-1.1102	6.49	0.50	-0.750			
0.3692	23630.94	3.6260	3.6259	-1.1145	6.49	0.50	-0.750			
0.3726	23844.00	3.6230	3.6229	-1.1153	6.49	0.50	-0.750			
0.3759	24059.86	3.6200	3.6200	-1.1209	6.49	0.50	-0.750			
0.3793	24274.07	3.6170	3.6169	-1.1261	6.50	0.51	-0.750			
0.3826	24489.49	3.6140	3.6140	-1.1327	6.50	0.51	-0.750			
0.3859	24699.40	3.6110	3.6111	-1.1557	6.51	0.52	-0.750			
0.3895	24930.32	3.6080	3.6079	-1.1725	6.51	0.52	-0.750			
0.3931	25157.51	3.6050	3.6049	-1.1867	6.52	0.53	-0.750			
0.3967	25388.10	3.6020	3.6019	-1.1981	6.52	0.53	-0.750			
0.4003	25621.23	3.5990	3.5990	-1.2089	6.52	0.53	-0.750			
0.4040	25854.29	3.5960	3.5959	-1.2155	6.52	0.53	-0.750			
0.4076	26086.91	3.5930	3.5930	-1.2290	6.53	0.54	-0.750			
0.4113	26321.39	3.5900	3.5902	-1.2481	6.53	0.54	-0.750	0.474	1.084	
0.4151	26564.34	3.5870	3.5869	-1.2604	6.54	0.55	-0.750			
0.4189	26807.68	3.5840	3.5840	-1.2666	6.54	0.55	-0.750			
0.4227	27049.96	3.5810	3.5811	-1.2880	6.55	0.56	-0.750			
0.4266	27299.83	3.5780	3.5779	-1.2972	6.55	0.56	-0.750			
0.4305	27550.82	3.5750	3.5749	-1.3036	6.56	0.57	-0.750			
0.4343	27797.80	3.5720	3.5719	-1.3262	6.56	0.57	-0.750			
0.4384	28056.22	3.5690	3.5690	-1.3311	6.56	0.57	-0.750			
0.4425	28317.45	3.5660	3.5659	-1.3483	6.56	0.57	-0.750			
0.4465	28573.63	3.5630	3.5629	-1.3672	6.57	0.58	-0.750			
0.4506	28835.22	3.5600	3.5601	-1.3726	6.57	0.58	-0.750			
0.4548	29105.03	3.5570	3.5568	-1.3946	6.57	0.58	-0.750			
0.4590	29373.20	3.5540	3.5540	-1.4083	6.57	0.58	-0.750			
0.4632	29642.10	3.5510	3.5511	-1.4086	6.57	0.58	-0.750			
0.4675	29920.36	3.5480	3.5480	-1.4317	6.58	0.59	-0.750			
0.4718	30194.74	3.5450	3.5449	-1.4502	6.59	0.60	-0.750			
0.4761	30473.50	3.5420	3.5420	-1.4554	6.59	0.60	-0.750			
0.4806	30757.16	3.5390	3.5389	-1.4892	6.60	0.61	-0.750			
0.4851	31049.12	3.5360	3.5358	-1.4986	6.61	0.62	-0.750			
0.4896	31336.64	3.5330	3.5327	-1.5084	6.61	0.62	-0.750			
0.4942	31628.64	3.5300	3.5303	-1.5354	6.62	0.63	-0.750			
0.4988	31924.91	3.5270	3.5271	-1.5400	6.62	0.63	-0.750			
0.5035	32223.69	3.5240	3.5240	-1.5473	6.62	0.63	-0.750			
0.5081	32519.17	3.5210	3.5210	-1.5377	6.63	0.64	-0.750			
0.5127	32812.19	3.5180	3.5181	-1.5484	6.63	0.64	-0.750			
0.5173	33106.24	3.5150	3.5147	-1.5542	6.64	0.65	-0.750			
0.5219	33404.23	3.5120	3.5118	-1.5476	6.65	0.66	-0.750			
0.5266	33703.57	3.5090	3.5089	-1.5644	6.65	0.66	-0.750			
0.5314	34011.66	3.5060	3.5058	-1.5760	6.66	0.67	-0.750			
0.5361	34309.36	3.5030	3.5033	-1.5865	6.67	0.68	-0.750			
0.5409	34618.87	3.5000	3.5000	-1.5839	6.68	0.69	-0.750			
0.5457	34925.11	3.4970	3.4968	-1.5761	6.68	0.69	-0.750			
0.5504	35224.65	3.4940	3.4940	-1.5763	6.69	0.70	-0.750			
0.5552	35531.76	3.4910	3.4912	-1.5803	6.70	0.71	-0.750			
0.5599	35833.84	3.4880	3.4878	-1.5711	6.71	0.72	-0.750			
0.5646	36136.71	3.4850	3.4849	-1.5497	6.71	0.72	-0.750			
0.5693	36435.28	3.4820	3.4820	-1.5665	6.72	0.73	-0.750			
0.5741	36739.73	3.4790	3.4791	-1.5601	6.73	0.74	-0.750			
0.5787	37034.45	3.4760	3.4759	-1.5359	6.74	0.75	-0.750			
0.5832	37323.97	3.4730	3.4729	-1.5513	6.75	0.76	-0.750			
0.5880	37628.99	3.4700	3.4701	-1.5436	6.76	0.77	-0.750			
0.5926	37928.66	3.4670	3.4667	-1.5295	6.77	0.78	-0.750			
0.5972	38220.47	3.4640	3.4642	-1.5128	6.79	0.80	-0.750			
0.6017	38506.91	3.4610	3.4607	-1.4777	6.80	0.81	-0.750			
0.6061	38791.33	3.4580	3.4579	-1.4862	6.81	0.82	-0.750			
0.6105	39071.13	3.4550	3.4550	-1.4655	6.82	0.83	-0.750			
0.6148	39350.37	3.4520	3.4519	-1.4599	6.83	0.84	-0.750			
0.6193	39635.20	3.4490	3.4492	-1.4440	6.84	0.85	-0.750			
0.6237	39914.64	3.4460	3.4460	-1.4410	6.85	0.86	-0.750			
0.6280	40190.74	3.4430	3.4429	-1.4117	6.86	0.87	-0.750			
0.6322	40461.77	3.4400	3.4399	-1.3878	6.88	0.89	-0.750			
0.6363	40721.64	3.4370	3.4373	-1.3524	6.89	0.90	-0.750			
0.6403	40982.39	3.4340	3.4340	-1.3308	6.90	0.91	-0.750			
0.6443	41235.07	3.4310	3.4309	-1.3044	6.91	0.92	-0.750			
0.6481	41481.30	3.4280	3.4281	-1.2827	6.93	0.94	-0.750			
0.6519	41724.36	3.4250	3.4249	-1.2600	6.94	0.95	-0.750			
0.6557	41966.05	3.4220	3.4220	-1.2342	6.96	0.97	-0.750			
0.6594	42200.21	3.4190	3.4189	-1.2100	6.98	0.99	-0.750			
0.6630	42429.32	3.4160	3.4161	-1.1891	6.99	1.00	-0.750			
0.6665	42657.80	3.4130	3.4130	-1.1626	7.01	1.02	-0.750			
0.6700	42878.99	3.4100	3.4099	-1.1301	7.02	1.03	-0.750			
0.6733	43092.71	3.4070	3.4071	-1.1001	7.03	1.04	-0.750			
0.6766	43303.56	3.4040	3.4039	-1.0643	7.04	1.05	-0.750			
0.6798	43504.26	3.4010	3.4009	-1.0305	7.06	1.07	-0.750			
0.6827	43693.73	3.3980	3.3981	-0.9998	7.07	1.08	-0.750			
0.6856	43880.33	3.3950	3.3949	-0.9690	7.09	1.10	-0.750			
0.6885	44064.22	3.3920	3.3919	-0.9583	7.10	1.11	-0.750			
0.6914	44247.91	3.3890	3.3890	-0.9312	7.11	1.12	-0.750			
0.6941	44425.05	3.3860	3.3861	-0.9098	7.13	1.14	-0.750			
0.6969	44598.96	3.3830	3.3829	-0.8878	7.14	1.15	-0.750			
0.6995	44768.28	3.3800	3.3802	-0.8628	7.15	1.16	-0.750			
0.7020	44930.45	3.3770	3.3770	-0.8399	7.16	1.17	-0.750			
0.7046	45091.57	3.3740	3.3739	-0.8320	7.18	1.19	-0.750			
0.7070	45248.80	3.3710	3.3710	-0.8065	7.19	1.20	-0.750			
0.7095	45406.80	3.3680	3.3677	-0.7993	7.20	1.21	-0.750			
0.7118	45556.36	3.3650	3.3656	-0.7755	7.21	1.22	-0.750			
0.7141	45704.13	3.3620	3.3617	-0.7521	7.22	1.23	-0.750			
0.7163	45844.89	3.3590	3.3589	-0.7357	7.23	1.24	-0.750			
0.7184	45977.46	3.3560	3.3560	-0.7031	7.24	1.25	-0.750			
0.7206	46117.89	3.3530	3.3530	-0.6992	7.25	1.26	-0.750			
0.7227	46251.47	3.3500	3.3500	-0.6710	7.26	1.27	-0.750			
0.7247	46378.12	3.3470	3.3471	-0.6533	7.27	1.28	-0.750			
