Ah_balance (normalized)	Ah_balance (mAh)	Voltage - fit (V)	Voltage -  interpolate (V)	dQ/dV (1/V)	Temperature (°C)	Temperature - diff (°C)	Current (C)	R_DC 0ms (mOhm)	R_DC 50ms (mOhm)	R_DC 50 ms PEC (mOhm)
0.1810	11581.93	4.0820	4.0820	0.7579	7.32	1.33	0.750			
0.1832	11726.38	4.0790	4.0791	0.7518	7.32	1.33	0.750			
0.1855	11871.33	4.0760	4.0759	0.7598	7.32	1.33	0.750			
0.1878	12018.32	4.0730	4.0730	0.7681	7.31	1.32	0.750			
0.1901	12166.67	4.0700	4.0701	0.7720	7.31	1.32	0.750			
0.1924	12316.53	4.0670	4.0670	0.7777	7.31	1.32	0.750			
0.1948	12466.92	4.0640	4.0641	0.7804	7.30	1.31	0.750			
0.1971	12616.87	4.0610	4.0610	0.7827	7.30	1.31	0.750			
0.1995	12765.29	4.0580	4.0580	0.7935	7.29	1.30	0.750			
0.2019	12918.73	4.0550	4.0549	0.8039	7.29	1.30	0.750			
0.2043	13075.45	4.0520	4.0519	0.8064	7.29	1.30	0.750			
0.2068	13233.15	4.0490	4.0491	0.8030	7.28	1.29	0.750			
0.2092	13389.02	4.0460	4.0461	0.8090	7.28	1.29	0.750			
0.2116	13542.58	4.0430	4.0431	0.8107	7.28	1.29	0.750			
0.2140	13696.56	4.0400	4.0398	0.8054	7.27	1.28	0.750			
0.2164	13849.10	4.0370	4.0371	0.8082	7.27	1.28	0.750			
0.2188	14006.24	4.0340	4.0341	0.8121	7.27	1.28	0.750			
0.2213	14163.47	4.0310	4.0310	0.8195	7.27	1.28	0.750			
0.2238	14323.26	4.0280	4.0280	0.8254	7.27	1.28	0.750			
0.2262	14474.83	4.0250	4.0250	0.8336	7.27	1.28	0.750			
0.2287	14634.85	4.0220	4.0222	0.8545	7.27	1.28	0.750			
0.2313	14802.30	4.0190	4.0189	0.8645	7.26	1.27	0.750			
0.2339	14970.49	4.0160	4.0157	0.8719	7.26	1.27	0.750			
0.2366	15144.93	4.0130	4.0133	0.8762	7.26	1.27	0.750			
0.2393	15313.02	4.0100	4.0100	0.8669	7.25	1.26	0.750			
0.2419	15480.00	4.0070	4.0070	0.8641	7.24	1.25	0.750			
0.2444	15642.95	4.0040	4.0039	0.8513	7.23	1.24	0.750			
0.2468	15797.80	4.0010	4.0011	0.8404	7.22	1.23	0.750			
0.2494	15960.12	3.9980	3.9981	0.8496	7.21	1.22	0.750			
0.2519	16122.71	3.9950	3.9946	0.8532	7.20	1.21	0.750			
0.2545	16286.86	3.9920	3.9921	0.8605	7.19	1.20	0.750			
0.2571	16452.87	3.9890	3.9891	0.8619	7.19	1.20	0.750			
0.2597	16619.55	3.9860	3.9861	0.8659	7.18	1.19	0.750			
0.2624	16790.90	3.9830	3.9829	0.8737	7.18	1.19	0.750			
0.2649	16952.53	3.9800	3.9798	0.8618	7.17	1.18	0.750			
0.2675	17118.31	3.9770	3.9771	0.8652	7.17	1.18	0.750			
0.2701	17284.64	3.9740	3.9740	0.8697	7.17	1.18	0.750			
0.2727	17452.04	3.9710	3.9710	0.8743	7.17	1.18	0.750			
0.2753	17620.76	3.9680	3.9680	0.8823	7.17	1.18	0.750			
0.2780	17789.84	3.9650	3.9650	0.8845	7.17	1.18	0.750			
0.2807	17962.44	3.9620	3.9620	0.8807	7.16	1.17	0.750			
0.2833	18130.72	3.9590	3.9590	0.8884	7.16	1.17	0.750			
0.2859	18300.30	3.9560	3.9560	0.8952	7.16	1.17	0.750			
0.2886	18470.56	3.9530	3.9531	0.9027	7.15	1.16	0.750			
0.2913	18646.28	3.9500	3.9501	0.9079	7.15	1.16	0.750			
0.2941	18822.26	3.9470	3.9470	0.9148	7.14	1.15	0.750			
0.2969	18999.78	3.9440	3.9440	0.9248	7.13	1.14	0.750			
0.2997	19179.55	3.9410	3.9411	0.9346	7.12	1.13	0.750			
0.3024	19355.85	3.9380	3.9379	0.9343	7.11	1.12	0.750			
0.3053	19536.08	3.9350	3.9350	0.9396	7.11	1.12	0.750			
0.3081	19716.50	3.9320	3.9321	0.9457	7.10	1.11	0.750			
0.3109	19900.06	3.9290	3.9289	0.9582	7.10	1.11	0.750			
0.3138	20085.87	3.9260	3.9260	0.9629	7.09	1.10	0.750			
0.3167	20271.82	3.9230	3.9230	0.9616	7.09	1.10	0.750			
0.3196	20456.42	3.9200	3.9200	0.9685	7.08	1.09	0.750			
0.3225	20642.18	3.9170	3.9171	0.9804	7.08	1.09	0.750			
0.3255	20829.61	3.9140	3.9141	0.9883	7.07	1.08	0.750			
0.3285	21022.03	3.9110	3.9110	0.9905	7.07	1.08	0.750			
0.3314	21212.22	3.9080	3.9081	1.0041	7.06	1.07	0.750			
0.3345	21406.19	3.9050	3.9051	1.0184	7.05	1.06	0.750			
0.3375	21602.76	3.9020	3.9020	1.0312	7.04	1.05	0.750			
0.3406	21800.90	3.8990	3.8989	1.0391	7.03	1.04	0.750			
0.3438	22001.01	3.8960	3.8960	1.0530	7.02	1.03	0.750			
0.3470	22206.30	3.8930	3.8931	1.0679	7.01	1.02	0.750			
0.3502	22414.46	3.8900	3.8900	1.0793	7.00	1.01	0.750			
0.3535	22623.20	3.8870	3.8870	1.0762	7.00	1.01	0.750			
0.3567	22829.43	3.8840	3.8841	1.0911	6.99	1.00	0.750			
0.3600	23039.13	3.8810	3.8810	1.1059	6.98	0.99	0.750			
0.3633	23252.11	3.8780	3.8779	1.1202	6.97	0.98	0.750			
0.3667	23467.88	3.8750	3.8751	1.1351	6.96	0.97	0.750			
0.3701	23687.72	3.8720	3.8721	1.1536	6.95	0.96	0.750			
0.3736	23911.30	3.8690	3.8690	1.1701	6.93	0.94	0.750			
0.3772	24139.84	3.8660	3.8658	1.1830	6.92	0.93	0.750			
0.3807	24365.81	3.8630	3.8631	1.1966	6.91	0.92	0.750			
0.3843	24597.09	3.8600	3.8600	1.2131	6.90	0.91	0.750			
0.3881	24836.03	3.8570	3.8570	1.2181	6.89	0.90	0.750			
0.3917	25068.12	3.8540	3.8540	1.2307	6.88	0.89	0.750			
0.3954	25303.08	3.8510	3.8511	1.2635	6.87	0.88	0.750			
0.3992	25548.37	3.8480	3.8481	1.2851	6.86	0.87	0.750			
0.4030	25790.62	3.8450	3.8447	1.3137	6.85	0.86	0.750			
0.4070	26045.02	3.8420	3.8422	1.3621	6.84	0.85	0.750			
0.4112	26315.30	3.8390	3.8391	1.3943	6.82	0.83	0.750	0.390	0.933	
0.4155	26592.70	3.8360	3.8361	1.4355	6.81	0.82	0.750			
0.4198	26864.16	3.8330	3.8332	1.4494	6.79	0.80	0.750			
0.4243	27155.47	3.8300	3.8300	1.4629	6.78	0.79	0.750			
0.4287	27433.95	3.8270	3.8270	1.4707	6.77	0.78	0.750			
0.4331	27716.82	3.8240	3.8240	1.4787	6.75	0.76	0.750			
0.4376	28003.56	3.8210	3.8211	1.5098	6.74	0.75	0.750			
0.4421	28296.28	3.8180	3.8182	1.5624	6.72	0.73	0.750			
0.4468	28596.92	3.8150	3.8148	1.5853	6.70	0.71	0.750			
0.4516	28902.91	3.8120	3.8119	1.6393	6.68	0.69	0.750			
0.4566	29224.34	3.8090	3.8091	1.6610	6.67	0.68	0.750			
0.4618	29554.24	3.8060	3.8060	1.7069	6.66	0.67	0.750			
0.4669	29882.41	3.8030	3.8031	1.7264	6.64	0.65	0.750			
0.4722	30220.31	3.8000	3.7999	1.7395	6.63	0.64	0.750			
0.4774	30552.76	3.7970	3.7969	1.7948	6.61	0.62	0.750			
0.4828	30896.44	3.7940	3.7941	1.8371	6.58	0.59	0.750			
0.4885	31261.50	3.7910	3.7910	1.8763	6.56	0.57	0.750			
0.4942	31628.93	3.7880	3.7880	1.8982	6.54	0.55	0.750			
0.5000	31998.76	3.7850	3.7852	1.8941	6.52	0.53	0.750			
0.5056	32360.03	3.7820	3.7823	1.9138	6.50	0.51	0.750			
0.5114	32727.22	3.7790	3.7789	1.9620	6.48	0.49	0.750			
0.5173	33107.54	3.7760	3.7761	2.0135	6.46	0.47	0.750			
0.5235	33506.32	3.7730	3.7729	2.0836	6.43	0.44	0.750			
0.5299	33914.37	3.7700	3.7699	2.0660	6.41	0.42	0.750			
0.5360	34306.85	3.7670	3.7672	2.0688	6.39	0.40	0.750			
0.5421	34697.10	3.7640	3.7640	2.0582	6.37	0.38	0.750			
0.5482	35085.34	3.7610	3.7611	2.0871	6.35	0.36	0.750			
0.5547	35498.34	3.7580	3.7580	2.1630	6.32	0.33	0.750			
0.5613	35923.12	3.7550	3.7548	2.2562	6.30	0.31	0.750			
0.5682	36367.96	3.7520	3.7520	2.2419	6.28	0.29	0.750			
0.5750	36801.70	3.7490	3.7494	2.2461	6.27	0.28	0.750			
0.5816	37222.23	3.7460	3.7458	2.2830	6.25	0.26	0.750			
0.5883	37650.98	3.7430	3.7431	2.3489	6.23	0.24	0.750			
0.5959	38138.03	3.7400	3.7400	2.5130	6.21	0.22	0.750			
0.6035	38621.40	3.7370	3.7372	2.5682	6.19	0.20	0.750			
0.6113	39123.58	3.7340	3.7340	2.6406	6.16	0.17	0.750			
0.6192	39631.55	3.7310	3.7311	2.7068	6.14	0.15	0.750			
0.6276	40167.25	3.7280	3.7279	2.6915	6.11	0.12	0.750			
0.6356	40677.76	3.7250	3.7249	2.6942	6.08	0.09	0.750			
0.6437	41198.83	3.7220	3.7218	2.6574	6.06	0.07	0.750			
0.6517	41710.97	3.7190	3.7191	2.5734	6.05	0.06	0.750			
0.6592	42189.29	3.7160	3.7160	2.3779	6.04	0.05	0.750			
0.6658	42612.67	3.7130	3.7129	2.1290	6.03	0.04	0.750			
0.6721	43017.42	3.7100	3.7098	1.9353	6.01	0.02	0.750			
0.6775	43362.50	3.7070	3.7069	1.7114	6.00	0.01	0.750			
0.6821	43655.60	3.7040	3.7041	1.4890	6.00	0.01	0.750			
0.6863	43924.88	3.7010	3.7010	1.3399	5.99	0.00	0.750			
0.6900	44158.97	3.6980	3.6978	1.1878	5.99	-0.00	0.750			
0.6933	44369.28	3.6950	3.6950	1.0630	5.99	-0.00	0.750			
0.6962	44559.59	3.6920	3.6920	0.9933	5.98	-0.01	0.750			
0.6990	44735.04	3.6890	3.6890	0.9246	5.98	-0.01	0.750			
0.7016	44903.47	3.6860	3.6858	0.8727	5.98	-0.01	0.750			
0.7042	45066.95	3.6830	3.6830	0.8357	5.98	-0.01	0.750			
0.7066	45224.73	3.6800	3.6800	0.7938	5.98	-0.01	0.750			
0.7090	45376.56	3.6770	3.6770	0.7577	5.99	-0.00	0.750			
0.7112	45518.94	3.6740	3.6740	0.7133	5.99	-0.00	0.750			
0.7133	45651.49	3.6710	3.6710	0.6683	5.99	-0.00	0.750			
0.7152	45774.65	3.6680	3.6681	0.6248	5.99	0.00	0.750			
0.7170	45890.74	3.6650	3.6650	0.5824	5.99	0.00	0.750			
0.7187	45998.63	3.6620	3.6620	0.5404	5.99	0.00	0.750			
0.7203	46098.97	3.6590	3.6590	0.4989	5.99	0.00	0.750			
0.7217	46190.43	3.6560	3.6560	0.4553	5.99	0.00	0.750			
0.7230	46273.30	3.6530	3.6530	0.4136	5.99	0.00	0.750			
0.7242	46347.88	3.6500	3.6500	0.3741	5.99	0.00	0.750			
0.7252	46415.12	3.6470	3.6469	0.3355	5.99	0.00	0.750			
0.7262	46475.74	3.6440	3.6440	0.2997	5.99	0.00	0.750			
0.7270	46529.38	3.6410	3.6410	0.2647	5.99	0.00	0.750			
0.7278	46578.80	3.6380	3.6380	0.2293	5.99	0.00	0.750			
0.7284	46619.71	3.6350	3.6349	0.1929	5.99	0.00	0.750			
0.7290	46653.03	3.6320	3.6321	0.1541	5.99	0.00	0.750			
0.7294	46679.76	3.6290	3.6292	0.1154	5.99	0.00	0.750			
0.7297	46697.95	3.6260	3.6267	0.0752	5.99	0.00	0.750			
0.7298	46709.96	3.6230	3.6228	0.0299	5.99	0.00	0.750			
0.7299	46711.36	3.6200	3.6215	-0.0152	5.99	0.00	0.750			
