Ah_balance (normalized)	Ah_balance (mAh)	Voltage - fit (V)	Voltage -  interpolate (V)	dQ/dV (1/V)	Temperature (°C)	Temperature - diff (°C)	Current (C)	R_DC 0ms (mOhm)	R_DC 50ms (mOhm)	R_DC 50 ms PEC (mOhm)
0.1794	11482.20	4.0830	4.0830	0.7812	7.43	1.44	0.750			
0.1817	11629.68	4.0800	4.0799	0.7622	7.43	1.44	0.750			
0.1840	11775.01	4.0770	4.0772	0.7639	7.42	1.43	0.750			
0.1863	11921.98	4.0740	4.0738	0.7707	7.41	1.42	0.750			
0.1886	12071.34	4.0710	4.0709	0.7729	7.40	1.41	0.750			
0.1910	12221.01	4.0680	4.0681	0.7737	7.40	1.41	0.750			
0.1933	12369.94	4.0650	4.0650	0.7814	7.39	1.40	0.750			
0.1956	12519.98	4.0620	4.0620	0.7838	7.38	1.39	0.750			
0.1980	12669.11	4.0590	4.0589	0.7830	7.37	1.38	0.750			
0.2003	12819.24	4.0560	4.0560	0.7864	7.37	1.38	0.750			
0.2027	12972.59	4.0530	4.0530	0.7859	7.36	1.37	0.750			
0.2051	13123.21	4.0500	4.0500	0.7928	7.35	1.36	0.750			
0.2074	13275.67	4.0470	4.0470	0.7968	7.34	1.35	0.750			
0.2098	13427.90	4.0440	4.0440	0.7990	7.34	1.35	0.750			
0.2122	13581.78	4.0410	4.0409	0.8019	7.33	1.34	0.750			
0.2146	13736.88	4.0380	4.0381	0.8055	7.32	1.33	0.750			
0.2171	13892.39	4.0350	4.0351	0.8126	7.31	1.32	0.750			
0.2195	14049.61	4.0320	4.0319	0.8163	7.30	1.31	0.750			
0.2220	14205.50	4.0290	4.0290	0.8143	7.30	1.31	0.750			
0.2244	14361.93	4.0260	4.0260	0.8177	7.29	1.30	0.750			
0.2269	14520.29	4.0230	4.0230	0.8173	7.28	1.29	0.750			
0.2293	14677.98	4.0200	4.0200	0.8219	7.27	1.28	0.750			
0.2318	14834.90	4.0170	4.0170	0.8219	7.27	1.28	0.750			
0.2342	14991.00	4.0140	4.0140	0.8241	7.26	1.27	0.750			
0.2367	15150.52	4.0110	4.0109	0.8286	7.25	1.26	0.750			
0.2392	15309.78	4.0080	4.0080	0.8352	7.24	1.25	0.750			
0.2417	15471.07	4.0050	4.0050	0.8374	7.24	1.25	0.750			
0.2443	15632.81	4.0020	4.0021	0.8429	7.23	1.24	0.750			
0.2468	15793.99	3.9990	3.9990	0.8443	7.23	1.24	0.750			
0.2493	15956.67	3.9960	3.9958	0.8486	7.22	1.23	0.750			
0.2519	16120.20	3.9930	3.9930	0.8519	7.21	1.22	0.750			
0.2544	16283.62	3.9900	3.9900	0.8558	7.21	1.22	0.750			
0.2570	16449.37	3.9870	3.9870	0.8583	7.20	1.21	0.750			
0.2596	16615.11	3.9840	3.9840	0.8632	7.19	1.20	0.750			
0.2622	16780.15	3.9810	3.9810	0.8647	7.19	1.20	0.750			
0.2648	16947.11	3.9780	3.9780	0.8683	7.18	1.19	0.750			
0.2674	17113.54	3.9750	3.9750	0.8723	7.17	1.18	0.750			
0.2700	17281.10	3.9720	3.9720	0.8775	7.16	1.17	0.750			
0.2727	17450.38	3.9690	3.9691	0.8814	7.15	1.16	0.750			
0.2753	17620.50	3.9660	3.9661	0.8865	7.15	1.16	0.750			
0.2780	17790.41	3.9630	3.9630	0.8895	7.14	1.15	0.750			
0.2806	17961.08	3.9600	3.9600	0.8956	7.13	1.14	0.750			
0.2833	18134.27	3.9570	3.9570	0.9054	7.12	1.13	0.750			
0.2861	18307.55	3.9540	3.9539	0.9111	7.11	1.12	0.750			
0.2888	18484.45	3.9510	3.9510	0.9147	7.10	1.11	0.750			
0.2916	18660.58	3.9480	3.9481	0.9221	7.09	1.10	0.750			
0.2944	18838.46	3.9450	3.9450	0.9286	7.09	1.10	0.750			
0.2972	19017.71	3.9420	3.9420	0.9302	7.08	1.09	0.750			
0.2999	19195.10	3.9390	3.9390	0.9336	7.07	1.08	0.750			
0.3027	19374.60	3.9360	3.9361	0.9371	7.06	1.07	0.750			
0.3055	19554.72	3.9330	3.9330	0.9457	7.05	1.06	0.750			
0.3084	19737.28	3.9300	3.9300	0.9551	7.05	1.06	0.750			
0.3113	19921.37	3.9270	3.9269	0.9595	7.04	1.05	0.750			
0.3142	20107.20	3.9240	3.9240	0.9638	7.03	1.04	0.750			
0.3171	20293.32	3.9210	3.9210	0.9749	7.03	1.04	0.750			
0.3200	20479.52	3.9180	3.9180	0.9835	7.02	1.03	0.750			
0.3230	20668.98	3.9150	3.9149	0.9909	7.01	1.02	0.750			
0.3260	20860.90	3.9120	3.9120	0.9965	7.00	1.01	0.750			
0.3289	21052.69	3.9090	3.9090	1.0097	6.99	1.00	0.750			
0.3320	21248.09	3.9060	3.9061	1.0215	6.98	0.99	0.750			
0.3351	21445.24	3.9030	3.9030	1.0286	6.97	0.98	0.750			
0.3382	21644.62	3.9000	3.8999	1.0364	6.96	0.97	0.750			
0.3413	21842.80	3.8970	3.8971	1.0501	6.96	0.97	0.750			
0.3445	22046.91	3.8940	3.8941	1.0638	6.94	0.95	0.750			
0.3477	22253.45	3.8910	3.8909	1.0778	6.93	0.94	0.750			
0.3509	22459.92	3.8880	3.8880	1.0823	6.92	0.93	0.750			
0.3542	22667.67	3.8850	3.8850	1.0970	6.91	0.92	0.750			
0.3575	22879.46	3.8820	3.8821	1.1122	6.90	0.91	0.750			
0.3609	23096.13	3.8790	3.8789	1.1234	6.89	0.90	0.750			
0.3642	23311.41	3.8760	3.8760	1.1339	6.88	0.89	0.750			
0.3677	23529.76	3.8730	3.8731	1.1572	6.87	0.88	0.750			
0.3711	23753.46	3.8700	3.8701	1.1757	6.86	0.87	0.750			
0.3747	23981.62	3.8670	3.8669	1.1851	6.85	0.86	0.750			
0.3783	24211.50	3.8640	3.8640	1.1988	6.84	0.85	0.750			
0.3819	24442.94	3.8610	3.8611	1.2161	6.83	0.84	0.750			
0.3856	24679.26	3.8580	3.8579	1.2274	6.81	0.82	0.750			
0.3893	24914.75	3.8550	3.8550	1.2439	6.80	0.81	0.750			
0.3930	25149.04	3.8520	3.8521	1.2656	6.79	0.80	0.750			
0.3968	25396.69	3.8490	3.8490	1.2963	6.79	0.80	0.750			
0.4008	25648.24	3.8460	3.8460	1.3345	6.77	0.78	0.750			
0.4048	25908.38	3.8430	3.8429	1.3611	6.76	0.77	0.750	0.400	0.909	
0.4090	26174.93	3.8400	3.8401	1.3808	6.74	0.75	0.750			
0.4132	26444.63	3.8370	3.8371	1.4084	6.72	0.73	0.750			
0.4174	26714.50	3.8340	3.8341	1.4267	6.71	0.72	0.750			
0.4217	26991.43	3.8310	3.8310	1.4317	6.70	0.71	0.750			
0.4261	27272.30	3.8280	3.8280	1.4467	6.68	0.69	0.750			
0.4304	27545.65	3.8250	3.8251	1.4820	6.67	0.68	0.750			
0.4349	27833.72	3.8220	3.8220	1.5166	6.66	0.67	0.750			
0.4395	28127.70	3.8190	3.8187	1.5374	6.64	0.65	0.750			
0.4441	28423.94	3.8160	3.8162	1.5772	6.63	0.64	0.750			
0.4489	28732.42	3.8130	3.8130	1.5963	6.61	0.62	0.750			
0.4538	29043.13	3.8100	3.8101	1.6061	6.59	0.60	0.750			
0.4586	29350.80	3.8070	3.8072	1.6408	6.58	0.59	0.750			
0.4636	29672.22	3.8040	3.8040	1.6769	6.56	0.57	0.750			
0.4688	30000.08	3.8010	3.8008	1.6960	6.54	0.55	0.750			
0.4739	30329.50	3.7980	3.7980	1.7305	6.51	0.52	0.750			
0.4792	30665.63	3.7950	3.7950	1.7559	6.49	0.50	0.750			
0.4844	31004.44	3.7920	3.7917	1.7636	6.48	0.49	0.750			
0.4897	31338.29	3.7890	3.7891	1.6965	6.46	0.47	0.750			
0.4947	31658.29	3.7860	3.7864	1.7022	6.43	0.44	0.750			
0.4997	31980.16	3.7830	3.7829	1.7149	6.41	0.42	0.750			
0.5046	32295.76	3.7800	3.7800	1.7454	6.39	0.40	0.750			
0.5100	32640.14	3.7770	3.7772	1.8346	6.38	0.39	0.750			
0.5159	33016.62	3.7740	3.7739	1.8906	6.36	0.37	0.750			
0.5214	33371.05	3.7710	3.7711	1.8792	6.34	0.35	0.750			
0.5273	33746.18	3.7680	3.7683	1.9033	6.31	0.32	0.750			
0.5329	34103.94	3.7650	3.7649	1.8954	6.29	0.30	0.750			
0.5385	34462.33	3.7620	3.7621	1.9150	6.26	0.27	0.750			
0.5442	34828.16	3.7590	3.7589	1.9509	6.25	0.26	0.750			
0.5502	35209.95	3.7560	3.7560	2.0589	6.23	0.24	0.750			
0.5562	35597.28	3.7530	3.7531	2.0403	6.21	0.22	0.750			
0.5625	35999.83	3.7500	3.7504	2.0409	6.19	0.20	0.750			
0.5686	36392.09	3.7470	3.7469	2.1046	6.17	0.18	0.750			
0.5749	36795.29	3.7440	3.7438	2.1793	6.15	0.16	0.750			
0.5817	37228.63	3.7410	3.7411	2.2732	6.13	0.14	0.750			
0.5887	37677.09	3.7380	3.7380	2.3412	6.10	0.11	0.750			
0.5956	38120.04	3.7350	3.7351	2.3565	6.08	0.09	0.750			
0.6028	38581.51	3.7320	3.7318	2.3722	6.06	0.07	0.750			
0.6098	39028.06	3.7290	3.7292	2.3839	6.04	0.05	0.750			
0.6177	39533.08	3.7260	3.7257	2.2737	6.02	0.03	0.750			
0.6239	39927.63	3.7230	3.7232	2.0100	6.00	0.01	0.750			
0.6292	40266.50	3.7200	3.7201	1.8214	5.99	-0.00	0.750			
0.6342	40590.61	3.7170	3.7162	1.7670	5.98	-0.01	0.750			
0.6392	40910.06	3.7140	3.7141	1.7337	5.97	-0.02	0.750			
0.6452	41294.33	3.7110	3.7111	1.7839	5.96	-0.03	0.750			
0.6504	41628.39	3.7080	3.7079	1.6379	5.96	-0.03	0.750			
0.6550	41916.96	3.7050	3.7052	1.4743	5.96	-0.03	0.750			
0.6591	42180.34	3.7020	3.7019	1.3209	5.95	-0.04	0.750			
0.6626	42404.28	3.6990	3.6990	1.1864	5.95	-0.04	0.750			
0.6658	42613.60	3.6960	3.6960	1.0867	5.95	-0.04	0.750			
0.6689	42807.88	3.6930	3.6931	1.0223	5.95	-0.04	0.750			
0.6718	42997.06	3.6900	3.6900	0.9795	5.95	-0.04	0.750			
0.6747	43177.89	3.6870	3.6869	0.9327	5.95	-0.04	0.750			
0.6774	43353.55	3.6840	3.6841	0.8959	5.95	-0.04	0.750			
0.6800	43522.55	3.6810	3.6808	0.8700	5.95	-0.04	0.750			
0.6826	43683.97	3.6780	3.6782	0.8560	5.95	-0.04	0.750			
0.6851	43846.35	3.6750	3.6749	0.8268	5.95	-0.04	0.750			
0.6875	44003.14	3.6720	3.6720	0.7928	5.95	-0.04	0.750			
0.6899	44155.85	3.6690	3.6688	0.7634	5.95	-0.04	0.750			
0.6922	44302.92	3.6660	3.6665	0.7258	5.95	-0.04	0.750			
0.6943	44435.95	3.6630	3.6629	0.6925	5.96	-0.03	0.750			
0.6963	44561.79	3.6600	3.6600	0.6511	5.96	-0.03	0.750			
0.6981	44681.13	3.6570	3.6570	0.6239	5.96	-0.03	0.750			
0.7000	44798.81	3.6540	3.6540	0.6001	5.96	-0.03	0.750			
0.7017	44911.19	3.6510	3.6512	0.5757	5.97	-0.02	0.750			
0.7035	45021.40	3.6480	3.6480	0.5446	5.97	-0.02	0.750			
0.7051	45124.20	3.6450	3.6451	0.5119	5.97	-0.02	0.750			
0.7065	45218.62	3.6420	3.6420	0.4717	5.98	-0.01	0.750			
0.7079	45306.46	3.6390	3.6388	0.4336	5.98	-0.01	0.750			
0.7091	45384.41	3.6360	3.6361	0.3999	5.98	-0.01	0.750			
0.7103	45457.82	3.6330	3.6328	0.3685	5.99	-0.00	0.750			
0.7113	45524.77	3.6300	3.6299	0.3347	5.99	-0.00	0.750			
0.7123	45587.18	3.6270	3.6272	0.3046	5.99	0.00	0.750			
0.7132	45645.01	3.6240	3.6240	0.2678	5.99	0.00	0.750			
0.7140	45694.04	3.6210	3.6209	0.2320	6.00	0.01	0.750			
0.7146	45736.17	3.6180	3.6179	0.1936	6.00	0.01	0.750			
0.7151	45769.36	3.6150	3.6152	0.1507	6.00	0.01	0.750			
0.7155	45794.99	3.6120	3.6119	0.1067	6.00	0.01	0.750			
0.7158	45811.05	3.6090	3.6086	0.0605	6.00	0.01	0.750			
0.7159	45816.55	3.6030	3.6060	-0.0420	6.00	0.01	0.750			
0.7159	45819.75	3.6060	3.5905	0.0087	6.00	0.01	0.745			
