Ah_balance (normalized)	Ah_balance (mAh)	Voltage - fit (V)	Voltage -  interpolate (V)	dQ/dV (1/V)	Temperature (°C)	Temperature - diff (°C)	Current (C)	R_DC 0ms (mOhm)	R_DC 50ms (mOhm)	R_DC 50 ms PEC (mOhm)
0.1808	11572.47	4.0820	4.0820	0.7998	7.23	1.26	0.750			
0.1832	11725.98	4.0790	4.0790	0.8005	7.23	1.26	0.750			
0.1856	11879.60	4.0760	4.0760	0.8046	7.23	1.26	0.750			
0.1881	12038.79	4.0730	4.0730	0.8011	7.22	1.25	0.750			
0.1905	12190.19	4.0700	4.0700	0.8006	7.22	1.25	0.750			
0.1929	12343.42	4.0670	4.0671	0.8073	7.22	1.25	0.750			
0.1953	12496.47	4.0640	4.0643	0.8076	7.21	1.24	0.750			
0.1977	12652.63	4.0610	4.0610	0.8088	7.21	1.24	0.750			
0.2001	12809.04	4.0580	4.0580	0.8071	7.20	1.23	0.750			
0.2026	12963.59	4.0550	4.0551	0.8151	7.20	1.23	0.750			
0.2050	13122.21	4.0520	4.0520	0.8269	7.20	1.23	0.750			
0.2075	13278.41	4.0490	4.0489	0.8203	7.19	1.22	0.750			
0.2099	13435.84	4.0460	4.0461	0.8265	7.19	1.22	0.750			
0.2125	13597.70	4.0430	4.0430	0.8271	7.18	1.21	0.750			
0.2150	13757.94	4.0400	4.0401	0.8298	7.18	1.21	0.750			
0.2174	13916.75	4.0370	4.0370	0.8337	7.18	1.21	0.750			
0.2199	14073.95	4.0340	4.0342	0.8303	7.17	1.20	0.750			
0.2224	14234.01	4.0310	4.0310	0.8380	7.17	1.20	0.750			
0.2250	14398.07	4.0280	4.0280	0.8361	7.16	1.19	0.750			
0.2275	14557.15	4.0250	4.0250	0.8392	7.16	1.19	0.750			
0.2300	14720.76	4.0220	4.0221	0.8470	7.15	1.18	0.750			
0.2325	14881.16	4.0190	4.0191	0.8461	7.14	1.17	0.750			
0.2350	15042.81	4.0160	4.0161	0.8484	7.14	1.17	0.750			
0.2376	15206.28	4.0130	4.0130	0.8486	7.14	1.17	0.750			
0.2401	15369.35	4.0100	4.0100	0.8549	7.13	1.16	0.750			
0.2428	15537.55	4.0070	4.0070	0.8639	7.13	1.16	0.750			
0.2453	15701.57	4.0040	4.0039	0.8577	7.13	1.16	0.750			
0.2479	15866.66	4.0010	4.0010	0.8612	7.13	1.16	0.750			
0.2505	16031.35	3.9980	3.9981	0.8623	7.12	1.15	0.750			
0.2531	16197.53	3.9950	3.9950	0.8663	7.12	1.15	0.750			
0.2557	16364.36	3.9920	3.9919	0.8738	7.11	1.14	0.750			
0.2583	16530.58	3.9890	3.9889	0.8774	7.11	1.14	0.750			
0.2610	16702.04	3.9860	3.9860	0.8790	7.10	1.13	0.750			
0.2636	16870.99	3.9830	3.9830	0.8841	7.10	1.13	0.750			
0.2663	17040.15	3.9800	3.9800	0.8879	7.09	1.12	0.750			
0.2689	17211.56	3.9770	3.9770	0.8909	7.09	1.12	0.750			
0.2716	17381.81	3.9740	3.9740	0.8961	7.08	1.11	0.750			
0.2743	17556.13	3.9710	3.9710	0.8919	7.08	1.11	0.750			
0.2770	17727.86	3.9680	3.9681	0.8965	7.08	1.11	0.750			
0.2797	17899.84	3.9650	3.9651	0.9062	7.07	1.10	0.750			
0.2824	18071.23	3.9620	3.9621	0.9123	7.07	1.10	0.750			
0.2851	18248.29	3.9590	3.9589	0.9209	7.07	1.10	0.750			
0.2879	18427.73	3.9560	3.9560	0.9172	7.07	1.10	0.750			
0.2907	18602.00	3.9530	3.9532	0.9241	7.06	1.09	0.750			
0.2935	18784.21	3.9500	3.9501	0.9345	7.06	1.09	0.750			
0.2963	18960.91	3.9470	3.9466	0.9296	7.06	1.09	0.750			
0.2990	19137.27	3.9440	3.9440	0.9239	7.05	1.08	0.750			
0.3018	19314.48	3.9410	3.9412	0.9362	7.05	1.08	0.750			
0.3046	19497.28	3.9380	3.9380	0.9499	7.04	1.07	0.750			
0.3075	19679.48	3.9350	3.9349	0.9543	7.03	1.06	0.750			
0.3104	19864.81	3.9320	3.9320	0.9522	7.02	1.05	0.750			
0.3133	20048.75	3.9290	3.9290	0.9642	7.02	1.05	0.750			
0.3161	20233.41	3.9260	3.9261	0.9738	7.01	1.04	0.750			
0.3191	20420.86	3.9230	3.9231	0.9830	7.00	1.03	0.750			
0.3220	20609.41	3.9200	3.9200	0.9847	6.99	1.02	0.750			
0.3250	20799.24	3.9170	3.9171	0.9972	6.98	1.01	0.750			
0.3280	20990.72	3.9140	3.9141	1.0137	6.98	1.01	0.750			
0.3311	21189.19	3.9110	3.9110	1.0213	6.97	1.00	0.750			
0.3341	21385.01	3.9080	3.9080	1.0270	6.97	1.00	0.750			
0.3372	21583.41	3.9050	3.9051	1.0327	6.96	0.99	0.750			
0.3403	21777.69	3.9020	3.9020	1.0573	6.96	0.99	0.750			
0.3435	21984.23	3.8990	3.8990	1.0752	6.95	0.98	0.750			
0.3468	22194.76	3.8960	3.8956	1.0746	6.95	0.98	0.750			
0.3500	22401.12	3.8930	3.8931	1.0823	6.94	0.97	0.750			
0.3533	22612.32	3.8900	3.8903	1.0930	6.93	0.96	0.750			
0.3566	22822.89	3.8870	3.8869	1.1000	6.93	0.96	0.750			
0.3598	23029.47	3.8840	3.8839	1.1003	6.92	0.95	0.750			
0.3631	23238.98	3.8810	3.8811	1.1134	6.91	0.94	0.750			
0.3665	23453.76	3.8780	3.8781	1.1451	6.90	0.93	0.750			
0.3700	23678.55	3.8750	3.8748	1.1611	6.89	0.92	0.750			
0.3735	23902.09	3.8720	3.8721	1.1763	6.88	0.91	0.750			
0.3770	24130.57	3.8690	3.8691	1.1968	6.87	0.90	0.750			
0.3807	24362.63	3.8660	3.8660	1.2143	6.86	0.89	0.750			
0.3844	24602.85	3.8630	3.8629	1.2179	6.85	0.88	0.750			
0.3880	24830.34	3.8600	3.8601	1.2311	6.84	0.87	0.750			
0.3917	25065.90	3.8570	3.8570	1.2504	6.84	0.87	0.750			
0.3955	25311.41	3.8540	3.8538	1.2718	6.83	0.86	0.750			
0.3993	25555.56	3.8510	3.8511	1.3025	6.82	0.85	0.750			
0.4032	25807.42	3.8480	3.8481	1.3270	6.80	0.83	0.750			
0.4073	26065.79	3.8450	3.8448	1.3520	6.79	0.82	0.750			
0.4113	26326.29	3.8420	3.8422	1.3859	6.77	0.80	0.750			
0.4154	26587.97	3.8390	3.8391	1.4102	6.76	0.79	0.750			
0.4198	26865.78	3.8360	3.8361	1.4331	6.75	0.78	0.750	0.408	0.980	
0.4242	27146.34	3.8330	3.8332	1.4672	6.75	0.78	0.750			
0.4285	27427.17	3.8300	3.8302	1.4996	6.74	0.77	0.750			
0.4332	27722.75	3.8270	3.8270	1.5248	6.73	0.76	0.750			
0.4378	28020.19	3.8240	3.8242	1.5404	6.72	0.75	0.750			
0.4423	28310.28	3.8210	3.8211	1.5659	6.70	0.73	0.750			
0.4471	28613.66	3.8180	3.8177	1.6178	6.69	0.72	0.750			
0.4519	28924.69	3.8150	3.8151	1.6537	6.67	0.70	0.750			
0.4571	29254.01	3.8120	3.8122	1.7001	6.66	0.69	0.750			
0.4624	29590.56	3.8090	3.8091	1.7199	6.64	0.67	0.750			
0.4674	29915.47	3.8060	3.8062	1.7531	6.62	0.65	0.750			
0.4726	30247.45	3.8030	3.8029	1.8093	6.61	0.64	0.750			
0.4781	30599.78	3.8000	3.7998	1.8278	6.59	0.62	0.750			
0.4837	30955.56	3.7970	3.7973	1.8734	6.57	0.60	0.750			
0.4895	31326.84	3.7940	3.7939	1.9073	6.55	0.58	0.750			
0.4952	31692.92	3.7910	3.7911	1.9538	6.53	0.56	0.750			
0.5010	32066.39	3.7880	3.7882	2.0023	6.51	0.54	0.750			
0.5073	32468.93	3.7850	3.7848	2.0637	6.48	0.51	0.750			
0.5135	32864.65	3.7820	3.7822	2.1021	6.45	0.48	0.750			
0.5199	33274.22	3.7790	3.7790	2.1159	6.43	0.46	0.750			
0.5261	33667.41	3.7760	3.7761	2.1004	6.41	0.44	0.750			
0.5325	34082.03	3.7730	3.7727	2.2020	6.39	0.42	0.750			
0.5393	34517.29	3.7700	3.7704	2.2126	6.37	0.40	0.750			
0.5462	34955.25	3.7670	3.7671	2.2355	6.35	0.38	0.750			
0.5524	35351.24	3.7640	3.7640	2.2269	6.33	0.36	0.750			
0.5593	35796.54	3.7610	3.7609	2.3033	6.31	0.34	0.750			
0.5664	36250.48	3.7580	3.7582	2.3765	6.27	0.30	0.750			
0.5735	36706.79	3.7550	3.7549	2.4154	6.24	0.27	0.750			
0.5808	37169.49	3.7520	3.7517	2.3975	6.22	0.25	0.750			
0.5882	37643.33	3.7490	3.7491	2.4885	6.19	0.22	0.750			
0.5957	38127.13	3.7460	3.7457	2.5767	6.15	0.18	0.750			
0.6035	38622.25	3.7430	3.7430	2.5716	6.14	0.17	0.750			
0.6114	39132.04	3.7400	3.7401	2.6940	6.12	0.15	0.750			
0.6195	39649.97	3.7370	3.7369	2.7731	6.10	0.13	0.750			
0.6280	40191.52	3.7340	3.7341	2.9269	6.08	0.11	0.750			
0.6371	40775.80	3.7310	3.7311	3.0203	6.06	0.09	0.750			
0.6465	41378.11	3.7280	3.7280	3.1508	6.03	0.06	0.750			
0.6561	41990.29	3.7250	3.7250	3.1375	6.01	0.04	0.750			
0.6654	42584.35	3.7220	3.7220	3.1484	5.99	0.02	0.750			
0.6747	43177.68	3.7190	3.7187	2.8642	5.98	0.01	0.750			
0.6832	43724.37	3.7160	3.7160	2.5912	5.97	0.00	0.750			
0.6904	44187.77	3.7130	3.7132	2.2898	5.96	-0.01	0.750			
0.6968	44595.58	3.7100	3.7097	2.0160	5.95	-0.02	0.750			
0.7022	44941.83	3.7070	3.7071	1.7355	5.95	-0.02	0.750			
0.7071	45251.26	3.7040	3.7041	1.5276	5.95	-0.02	0.750			
0.7111	45512.72	3.7010	3.7011	1.3357	5.95	-0.02	0.750			
0.7147	45741.50	3.6980	3.6980	1.1662	5.95	-0.02	0.750			
0.7180	45952.26	3.6950	3.6950	1.0656	5.95	-0.02	0.750			
0.7209	46139.67	3.6920	3.6916	0.9635	5.95	-0.02	0.750			
0.7236	46308.59	3.6890	3.6889	0.8793	5.95	-0.02	0.750			
0.7261	46470.84	3.6860	3.6861	0.8156	5.96	-0.01	0.750			
0.7284	46619.03	3.6830	3.6830	0.7621	5.96	-0.01	0.750			
0.7306	46761.27	3.6800	3.6799	0.7100	5.97	-0.00	0.750			
0.7327	46890.91	3.6770	3.6770	0.6511	5.97	-0.00	0.750			
0.7346	47012.65	3.6740	3.6741	0.5991	5.97	0.00	0.750			
0.7363	47123.77	3.6710	3.6710	0.5452	5.97	0.00	0.750			
0.7378	47222.08	3.6680	3.6680	0.4912	5.98	0.01	0.750			
0.7392	47309.59	3.6650	3.6650	0.4379	5.98	0.01	0.750			
0.7404	47386.40	3.6620	3.6619	0.3884	5.98	0.01	0.750			
0.7415	47456.72	3.6590	3.6590	0.3472	5.98	0.01	0.750			
0.7425	47518.24	3.6560	3.6560	0.3071	5.98	0.01	0.750			
0.7433	47573.79	3.6530	3.6530	0.2673	5.99	0.02	0.750			
0.7441	47621.86	3.6500	3.6499	0.2297	5.99	0.02	0.750			
0.7447	47662.13	3.6470	3.6469	0.1903	5.99	0.02	0.750			
0.7452	47695.48	3.6440	3.6443	0.1516	5.99	0.02	0.750			
0.7456	47721.30	3.6410	3.6412	0.1114	5.99	0.02	0.750			
0.7459	47738.69	3.6380	3.6385	0.0698	5.99	0.02	0.750			
0.7461	47748.62	3.6350	3.6368	0.0170	5.99	0.02	0.750			
