Ah_balance (normalized)	Ah_balance (mAh)	Voltage - fit (V)	Voltage -  interpolate (V)	dQ/dV (1/V)	Temperature (°C)	Temperature - diff (°C)	Current (C)	R_DC 0ms (mOhm)	R_DC 50ms (mOhm)	R_DC 50 ms PEC (mOhm)
0.0939	6008.98	4.0050	4.0042	-0.0394	6.00	0.00	-0.750			
0.0941	6021.62	4.0020	4.0016	-0.0803	6.00	0.00	-0.750			
0.0944	6040.81	3.9990	3.9986	-0.1110	6.00	0.00	-0.750			
0.0948	6064.83	3.9960	3.9960	-0.1393	6.00	0.00	-0.750			
0.0952	6094.69	3.9930	3.9930	-0.1647	6.00	-0.00	-0.750			
0.0958	6129.12	3.9900	3.9901	-0.1886	6.00	-0.00	-0.750			
0.0964	6169.09	3.9870	3.9870	-0.2147	6.00	-0.00	-0.750			
0.0971	6212.10	3.9840	3.9840	-0.2379	5.99	-0.01	-0.750			
0.0978	6259.63	3.9810	3.9810	-0.2610	5.99	-0.01	-0.750			
0.0986	6312.15	3.9780	3.9780	-0.2849	5.99	-0.01	-0.750			
0.0995	6369.15	3.9750	3.9749	-0.3088	5.99	-0.01	-0.750			
0.1005	6431.44	3.9720	3.9720	-0.3309	5.99	-0.01	-0.750			
0.1015	6497.14	3.9690	3.9691	-0.3527	5.98	-0.02	-0.750			
0.1026	6566.37	3.9660	3.9660	-0.3770	5.98	-0.02	-0.750			
0.1038	6640.95	3.9630	3.9630	-0.4006	5.98	-0.02	-0.750			
0.1050	6719.64	3.9600	3.9599	-0.4236	5.98	-0.02	-0.750			
0.1063	6803.44	3.9570	3.9570	-0.4467	5.97	-0.03	-0.750			
0.1077	6892.56	3.9540	3.9542	-0.4693	5.97	-0.03	-0.750			
0.1091	6985.34	3.9510	3.9511	-0.4905	5.97	-0.03	-0.750			
0.1107	7082.67	3.9480	3.9479	-0.5051	5.96	-0.04	-0.750			
0.1122	7180.59	3.9450	3.9450	-0.5206	5.96	-0.04	-0.750			
0.1138	7281.54	3.9420	3.9421	-0.5397	5.96	-0.04	-0.750			
0.1154	7386.48	3.9390	3.9391	-0.5581	5.96	-0.04	-0.750			
0.1171	7495.77	3.9360	3.9359	-0.5753	5.95	-0.05	-0.750			
0.1189	7608.35	3.9330	3.9330	-0.5908	5.95	-0.05	-0.750			
0.1207	7724.34	3.9300	3.9301	-0.6050	5.95	-0.05	-0.750			
0.1225	7842.91	3.9270	3.9270	-0.6171	5.95	-0.05	-0.750			
0.1244	7962.58	3.9240	3.9240	-0.6257	5.96	-0.04	-0.750			
0.1263	8082.71	3.9210	3.9210	-0.6360	5.96	-0.04	-0.750			
0.1282	8206.27	3.9180	3.9180	-0.6460	5.96	-0.04	-0.750			
0.1302	8332.30	3.9150	3.9149	-0.6538	5.97	-0.03	-0.750			
0.1322	8458.54	3.9120	3.9121	-0.6604	5.97	-0.03	-0.750			
0.1342	8587.26	3.9090	3.9090	-0.6684	5.97	-0.03	-0.750			
0.1362	8715.83	3.9060	3.9060	-0.6713	5.98	-0.02	-0.750			
0.1382	8844.14	3.9030	3.9030	-0.6767	5.98	-0.02	-0.750			
0.1402	8974.35	3.9000	3.9001	-0.6815	5.98	-0.02	-0.750			
0.1423	9107.43	3.8970	3.8969	-0.6869	5.99	-0.01	-0.750			
0.1444	9239.73	3.8940	3.8940	-0.6902	5.99	-0.01	-0.750			
0.1464	9372.38	3.8910	3.8910	-0.6925	5.99	-0.01	-0.750			
0.1485	9505.29	3.8880	3.8880	-0.6961	6.00	-0.00	-0.750			
0.1506	9638.93	3.8850	3.8850	-0.7013	6.00	-0.00	-0.750			
0.1527	9773.63	3.8820	3.8820	-0.7045	6.00	0.00	-0.750			
0.1549	9910.46	3.8790	3.8790	-0.7097	6.01	0.01	-0.750			
0.1570	10048.16	3.8760	3.8761	-0.7096	6.01	0.01	-0.750			
0.1591	10184.23	3.8730	3.8730	-0.7130	6.01	0.01	-0.750			
0.1613	10321.50	3.8700	3.8699	-0.7134	6.02	0.02	-0.750			
0.1634	10457.77	3.8670	3.8670	-0.7142	6.02	0.02	-0.750			
0.1655	10594.67	3.8640	3.8640	-0.7162	6.03	0.03	-0.750			
0.1677	10733.56	3.8610	3.8610	-0.7200	6.03	0.03	-0.750			
0.1699	10871.80	3.8580	3.8582	-0.7231	6.04	0.04	-0.750			
0.1721	11011.61	3.8550	3.8549	-0.7240	6.05	0.05	-0.750			
0.1742	11149.22	3.8520	3.8521	-0.7231	6.05	0.05	-0.750			
0.1764	11289.65	3.8490	3.8490	-0.7299	6.06	0.06	-0.750			
0.1786	11432.37	3.8460	3.8458	-0.7322	6.06	0.06	-0.750			
0.1808	11571.83	3.8430	3.8429	-0.7295	6.07	0.07	-0.750			
0.1830	11711.35	3.8400	3.8403	-0.7309	6.07	0.07	-0.750			
0.1852	11851.08	3.8370	3.8369	-0.7301	6.08	0.08	-0.750			
0.1874	11991.35	3.8340	3.8339	-0.7325	6.08	0.08	-0.750			
0.1895	12129.78	3.8310	3.8310	-0.7237	6.09	0.09	-0.750			
0.1917	12271.37	3.8280	3.8281	-0.7322	6.09	0.09	-0.750			
0.1939	12412.41	3.8250	3.8250	-0.7384	6.10	0.10	-0.750			
0.1961	12553.38	3.8220	3.8219	-0.7378	6.10	0.10	-0.750			
0.1984	12694.69	3.8190	3.8189	-0.7362	6.11	0.11	-0.750			
0.2006	12837.80	3.8160	3.8160	-0.7392	6.12	0.12	-0.750			
0.2028	12980.72	3.8130	3.8130	-0.7380	6.13	0.13	-0.750			
0.2051	13123.29	3.8100	3.8100	-0.7377	6.14	0.14	-0.750			
0.2072	13263.62	3.8070	3.8071	-0.7329	6.15	0.15	-0.750			
0.2094	13403.32	3.8040	3.8039	-0.7323	6.15	0.15	-0.750			
0.2116	13543.81	3.8010	3.8010	-0.7318	6.16	0.16	-0.750			
0.2138	13683.56	3.7980	3.7980	-0.7389	6.16	0.16	-0.750			
0.2160	13825.49	3.7950	3.7950	-0.7416	6.16	0.16	-0.750			
0.2183	13970.13	3.7920	3.7919	-0.7438	6.17	0.17	-0.750			
0.2205	14112.71	3.7890	3.7891	-0.7469	6.17	0.17	-0.750			
0.2228	14256.68	3.7860	3.7860	-0.7503	6.18	0.18	-0.750			
0.2250	14401.17	3.7830	3.7829	-0.7528	6.19	0.19	-0.750			
0.2273	14546.06	3.7800	3.7800	-0.7536	6.21	0.21	-0.750			
0.2295	14690.59	3.7770	3.7770	-0.7540	6.22	0.22	-0.750			
0.2318	14835.71	3.7740	3.7740	-0.7580	6.23	0.23	-0.750			
0.2341	14982.61	3.7710	3.7710	-0.7598	6.24	0.24	-0.750			
0.2364	15126.48	3.7680	3.7680	-0.7630	6.24	0.24	-0.750			
0.2387	15273.66	3.7650	3.7650	-0.7629	6.25	0.25	-0.750			
0.2409	15420.51	3.7620	3.7620	-0.7657	6.26	0.26	-0.750			
0.2433	15568.27	3.7590	3.7589	-0.7713	6.26	0.26	-0.750			
0.2456	15716.34	3.7560	3.7562	-0.7745	6.27	0.27	-0.750			
0.2479	15864.35	3.7530	3.7529	-0.7793	6.28	0.28	-0.750			
0.2502	16015.09	3.7500	3.7500	-0.7894	6.29	0.29	-0.750			
0.2526	16167.60	3.7470	3.7469	-0.7905	6.29	0.29	-0.750			
0.2550	16322.62	3.7440	3.7440	-0.7959	6.30	0.30	-0.750			
0.2574	16475.21	3.7410	3.7412	-0.7994	6.31	0.31	-0.750			
0.2598	16629.19	3.7380	3.7380	-0.7967	6.32	0.32	-0.750			
0.2622	16781.76	3.7350	3.7350	-0.8011	6.32	0.32	-0.750			
0.2646	16933.25	3.7320	3.7320	-0.8025	6.33	0.33	-0.750			
0.2670	17087.67	3.7290	3.7291	-0.8110	6.33	0.33	-0.750			
0.2694	17243.62	3.7260	3.7260	-0.8212	6.34	0.34	-0.750			
0.2719	17404.16	3.7230	3.7229	-0.8292	6.34	0.34	-0.750			
0.2744	17563.56	3.7200	3.7200	-0.8347	6.35	0.35	-0.750			
0.2769	17724.73	3.7170	3.7170	-0.8426	6.36	0.36	-0.750			
0.2795	17887.19	3.7140	3.7141	-0.8482	6.36	0.36	-0.750			
0.2820	18051.18	3.7110	3.7110	-0.8541	6.37	0.37	-0.750			
0.2846	18215.17	3.7080	3.7080	-0.8620	6.38	0.38	-0.750			
0.2872	18380.22	3.7050	3.7050	-0.8667	6.38	0.38	-0.750			
0.2898	18547.92	3.7020	3.7020	-0.8763	6.39	0.39	-0.750			
0.2925	18717.65	3.6990	3.6990	-0.8805	6.39	0.39	-0.750			
0.2951	18887.64	3.6960	3.6962	-0.8878	6.40	0.40	-0.750			
0.2978	19058.73	3.6930	3.6930	-0.8958	6.41	0.41	-0.750			
0.3005	19231.00	3.6900	3.6901	-0.9030	6.41	0.41	-0.750			
0.3032	19404.82	3.6870	3.6869	-0.9091	6.42	0.42	-0.750			
0.3060	19581.23	3.6840	3.6840	-0.9140	6.43	0.43	-0.750			
0.3087	19756.39	3.6810	3.6811	-0.9213	6.43	0.43	-0.750			
0.3115	19934.10	3.6780	3.6780	-0.9370	6.44	0.44	-0.750			
0.3143	20115.04	3.6750	3.6749	-0.9416	6.45	0.45	-0.750			
0.3171	20295.93	3.6720	3.6719	-0.9506	6.45	0.45	-0.750			
0.3200	20479.92	3.6690	3.6692	-0.9579	6.46	0.46	-0.750			
0.3229	20665.54	3.6660	3.6659	-0.9697	6.47	0.47	-0.750			
0.3258	20853.49	3.6630	3.6630	-0.9736	6.47	0.47	-0.750			
0.3287	21038.65	3.6600	3.6599	-0.9766	6.48	0.48	-0.750			
0.3317	21227.81	3.6570	3.6571	-0.9881	6.49	0.49	-0.750			
0.3347	21418.24	3.6540	3.6539	-0.9990	6.49	0.49	-0.750			
0.3377	21609.86	3.6510	3.6509	-1.0046	6.50	0.50	-0.750			
0.3407	21804.75	3.6480	3.6480	-1.0129	6.50	0.50	-0.750			
0.3437	21998.76	3.6450	3.6449	-1.0180	6.51	0.51	-0.750			
0.3468	22197.59	3.6420	3.6420	-1.0316	6.51	0.51	-0.750			
0.3499	22394.88	3.6390	3.6390	-1.0379	6.51	0.51	-0.750			
0.3530	22593.84	3.6360	3.6359	-1.0465	6.51	0.51	-0.750			
0.3562	22795.08	3.6330	3.6330	-1.0502	6.51	0.51	-0.750			
0.3594	23000.05	3.6300	3.6299	-1.0664	6.52	0.52	-0.750			
0.3626	23206.53	3.6270	3.6270	-1.0727	6.53	0.53	-0.750			
0.3658	23412.52	3.6240	3.6240	-1.0827	6.54	0.54	-0.750			
0.3691	23620.07	3.6210	3.6210	-1.0932	6.55	0.55	-0.750			
0.3724	23832.03	3.6180	3.6179	-1.1064	6.55	0.55	-0.750			
0.3757	24045.57	3.6150	3.6150	-1.1125	6.56	0.56	-0.750			
0.3791	24259.98	3.6120	3.6120	-1.1241	6.56	0.56	-0.750			
0.3825	24477.13	3.6090	3.6091	-1.1296	6.57	0.57	-0.750			
0.3859	24696.22	3.6060	3.6059	-1.1400	6.57	0.57	-0.750			
0.3893	24913.42	3.6030	3.6030	-1.1463	6.57	0.57	-0.750			
0.3927	25131.58	3.6000	3.6001	-1.1573	6.57	0.57	-0.750			
0.3962	25357.37	3.5970	3.5970	-1.1748	6.57	0.57	-0.750			
0.3998	25584.62	3.5940	3.5940	-1.1876	6.58	0.58	-0.750			
0.4034	25814.74	3.5910	3.5909	-1.1933	6.58	0.58	-0.750			
0.4070	26045.48	3.5880	3.5885	-1.2067	6.59	0.59	-0.750	0.452	1.038	
0.4106	26277.71	3.5850	3.5849	-1.2140	6.60	0.60	-0.750			
0.4142	26510.55	3.5820	3.5819	-1.2154	6.60	0.60	-0.750			
0.4179	26743.33	3.5790	3.5790	-1.2286	6.61	0.61	-0.750			
0.4215	26978.24	3.5760	3.5760	-1.2432	6.61	0.61	-0.750			
0.4253	27219.97	3.5730	3.5730	-1.2556	6.62	0.62	-0.750			
0.4291	27462.34	3.5700	3.5700	-1.2733	6.62	0.62	-0.750			
0.4329	27707.58	3.5670	3.5671	-1.2938	6.63	0.63	-0.750			
0.4369	27961.62	3.5640	3.5639	-1.3051	6.64	0.64	-0.750			
0.4409	28214.62	3.5610	3.5609	-1.3192	6.64	0.64	-0.750			
0.4448	28468.18	3.5580	3.5584	-1.3295	6.65	0.65	-0.750			
0.4488	28726.26	3.5550	3.5549	-1.3359	6.66	0.66	-0.750			
0.4529	28982.51	3.5520	3.5519	-1.3502	6.66	0.66	-0.750			
0.4569	29239.28	3.5490	3.5493	-1.3547	6.67	0.67	-0.750			
0.4610	29503.49	3.5460	3.5459	-1.3801	6.68	0.68	-0.750			
0.4652	29769.95	3.5430	3.5430	-1.3882	6.68	0.68	-0.750			
0.4693	30034.43	3.5400	3.5400	-1.4030	6.69	0.69	-0.750			
0.4735	30306.66	3.5370	3.5370	-1.4156	6.70	0.70	-0.750			
0.4779	30584.89	3.5340	3.5340	-1.4304	6.70	0.70	-0.750			
0.4822	30858.60	3.5310	3.5312	-1.4403	6.71	0.71	-0.750			
0.4865	31135.90	3.5280	3.5280	-1.4505	6.72	0.72	-0.750			
0.4909	31414.97	3.5250	3.5250	-1.4561	6.72	0.72	-0.750			
0.4952	31695.51	3.5220	3.5221	-1.4725	6.73	0.73	-0.750			
0.4997	31981.22	3.5190	3.5188	-1.4789	6.74	0.74	-0.750			
0.5041	32264.45	3.5160	3.5161	-1.4992	6.74	0.74	-0.750			
0.5087	32556.31	3.5130	3.5130	-1.5026	6.75	0.75	-0.750			
0.5132	32846.65	3.5100	3.5100	-1.5035	6.76	0.76	-0.750			
0.5177	33135.80	3.5070	3.5070	-1.5064	6.77	0.77	-0.750			
0.5222	33421.67	3.5040	3.5040	-1.4991	6.78	0.78	-0.750			
0.5268	33712.54	3.5010	3.5009	-1.5059	6.79	0.79	-0.750			
0.5313	34000.30	3.4980	3.4980	-1.5075	6.81	0.81	-0.750			
0.5358	34291.68	3.4950	3.4950	-1.4906	6.82	0.82	-0.750			
0.5404	34582.49	3.4920	3.4920	-1.4771	6.82	0.82	-0.750			
0.5448	34864.77	3.4890	3.4892	-1.4689	6.83	0.83	-0.750			
0.5491	35140.05	3.4860	3.4861	-1.4613	6.84	0.84	-0.750			
0.5534	35415.73	3.4830	3.4828	-1.4584	6.84	0.84	-0.750			
0.5577	35694.96	3.4800	3.4801	-1.4734	6.85	0.85	-0.750			
0.5622	35979.89	3.4770	3.4770	-1.4882	6.86	0.86	-0.750			
0.5667	36269.69	3.4740	3.4740	-1.5098	6.86	0.86	-0.750			
0.5714	36567.54	3.4710	3.4710	-1.5074	6.87	0.87	-0.750			
0.5759	36855.31	3.4680	3.4680	-1.5055	6.89	0.89	-0.750			
0.5804	37145.10	3.4650	3.4650	-1.4989	6.90	0.90	-0.750			
0.5848	37430.19	3.4620	3.4618	-1.4852	6.92	0.92	-0.750			
0.5894	37719.21	3.4590	3.4589	-1.4767	6.93	0.93	-0.750			
0.5938	38002.24	3.4560	3.4559	-1.4625	6.94	0.94	-0.750			
0.5982	38281.70	3.4530	3.4529	-1.4433	6.95	0.95	-0.750			
0.6025	38558.60	3.4500	3.4500	-1.4296	6.97	0.97	-0.750			
0.6067	38826.65	3.4470	3.4471	-1.4056	6.99	0.99	-0.750			
0.6109	39095.12	3.4440	3.4439	-1.3864	7.00	1.00	-0.750			
0.6150	39362.76	3.4410	3.4410	-1.3689	7.01	1.01	-0.750			
0.6191	39623.50	3.4380	3.4382	-1.3592	7.03	1.03	-0.750			
0.6232	39882.85	3.4350	3.4349	-1.3386	7.05	1.05	-0.750			
0.6272	40141.60	3.4320	3.4319	-1.3224	7.06	1.06	-0.750			
0.6311	40392.07	3.4290	3.4291	-1.3035	7.08	1.08	-0.750			
0.6350	40640.11	3.4260	3.4260	-1.2820	7.10	1.10	-0.750			
0.6389	40888.54	3.4230	3.4230	-1.2662	7.11	1.11	-0.750			
0.6426	41128.75	3.4200	3.4199	-1.2384	7.12	1.12	-0.750			
0.6463	41361.63	3.4170	3.4171	-1.2122	7.14	1.14	-0.750			
0.6499	41596.47	3.4140	3.4140	-1.1936	7.15	1.15	-0.750			
0.6535	41822.70	3.4110	3.4109	-1.1619	7.17	1.17	-0.750			
0.6569	42042.59	3.4080	3.4081	-1.1343	7.19	1.19	-0.750			
0.6603	42258.43	3.4050	3.4050	-1.1134	7.21	1.21	-0.750			
0.6636	42470.02	3.4020	3.4019	-1.0862	7.22	1.22	-0.750			
0.6668	42676.82	3.3990	3.3990	-1.0565	7.24	1.24	-0.750			
0.6699	42875.18	3.3960	3.3962	-1.0288	7.26	1.26	-0.750			
0.6730	43071.58	3.3930	3.3930	-1.0093	7.28	1.28	-0.750			
0.6760	43263.36	3.3900	3.3900	-0.9818	7.30	1.30	-0.750			
0.6789	43447.04	3.3870	3.3869	-0.9531	7.32	1.32	-0.750			
0.6817	43628.62	3.3840	3.3840	-0.9330	7.34	1.34	-0.750			
0.6845	43805.56	3.3810	3.3811	-0.9098	7.35	1.35	-0.750			
0.6872	43979.70	3.3780	3.3779	-0.8854	7.37	1.37	-0.750			
0.6898	44144.99	3.3750	3.3750	-0.8604	7.38	1.38	-0.750			
0.6923	44307.92	3.3720	3.3720	-0.8357	7.40	1.40	-0.750			
0.6948	44466.72	3.3690	3.3691	-0.8144	7.41	1.41	-0.750			
0.6972	44619.89	3.3660	3.3660	-0.7916	7.43	1.43	-0.750			
0.6995	44769.48	3.3630	3.3631	-0.7694	7.44	1.44	-0.750			
0.7018	44915.09	3.3600	3.3600	-0.7527	7.46	1.46	-0.750			
0.7040	45057.84	3.3570	3.3570	-0.7374	7.48	1.48	-0.750			
0.7062	45196.88	3.3540	3.3539	-0.7181	7.49	1.49	-0.750			
0.7083	45333.75	3.3510	3.3510	-0.7031	7.51	1.51	-0.750			
0.7104	45467.89	3.3480	3.3480	-0.6854	7.52	1.52	-0.750			
0.7125	45597.75	3.3450	3.3450	-0.6671	7.54	1.54	-0.750			
0.7144	45723.58	3.3420	3.3420	-0.6499	7.55	1.55	-0.750			
0.7163	45845.95	3.3390	3.3390	-0.6116	7.56	1.56	-0.750			
