Ah_balance (normalized)	Ah_balance (mAh)	Voltage - fit (V)	Voltage -  interpolate (V)	dQ/dV (1/V)	Temperature (°C)	Temperature - diff (°C)	Current (C)	R_DC 0ms (mOhm)	R_DC 50ms (mOhm)	R_DC 50 ms PEC (mOhm)
0.1587	10159.04	4.0730	4.0730	0.7901	7.74	1.76	0.750			
0.1612	10314.31	4.0700	4.0700	0.8085	7.74	1.76	0.750			
0.1636	10470.84	4.0670	4.0670	0.8149	7.74	1.76	0.750			
0.1661	10628.93	4.0640	4.0640	0.8154	7.74	1.76	0.750			
0.1685	10785.99	4.0610	4.0610	0.8187	7.74	1.76	0.750			
0.1710	10943.62	4.0580	4.0580	0.8205	7.73	1.75	0.750			
0.1734	11099.72	4.0550	4.0551	0.8185	7.73	1.75	0.750			
0.1759	11256.99	4.0520	4.0519	0.8233	7.73	1.75	0.750			
0.1784	11417.04	4.0490	4.0490	0.8234	7.72	1.74	0.750			
0.1809	11575.74	4.0460	4.0460	0.8254	7.72	1.74	0.750			
0.1833	11733.80	4.0430	4.0430	0.8283	7.71	1.73	0.750			
0.1858	11892.06	4.0400	4.0401	0.8325	7.70	1.72	0.750			
0.1883	12051.61	4.0370	4.0369	0.8337	7.70	1.72	0.750			
0.1908	12212.86	4.0340	4.0340	0.8325	7.70	1.72	0.750			
0.1933	12373.18	4.0310	4.0310	0.8367	7.70	1.72	0.750			
0.1958	12534.21	4.0280	4.0281	0.8427	7.69	1.71	0.750			
0.1984	12695.92	4.0250	4.0249	0.8443	7.69	1.71	0.750			
0.2009	12857.72	4.0220	4.0220	0.8435	7.69	1.71	0.750			
0.2034	13020.15	4.0190	4.0190	0.8486	7.69	1.71	0.750			
0.2060	13183.87	4.0160	4.0161	0.8597	7.68	1.70	0.750			
0.2086	13350.52	4.0130	4.0129	0.8634	7.68	1.70	0.750			
0.2112	13517.09	4.0100	4.0099	0.8625	7.67	1.69	0.750			
0.2138	13682.43	4.0070	4.0071	0.8642	7.67	1.69	0.750			
0.2164	13850.83	4.0040	4.0040	0.8626	7.66	1.68	0.750			
0.2190	14014.62	4.0010	4.0010	0.8673	7.65	1.67	0.750			
0.2215	14178.99	3.9980	3.9980	0.8659	7.64	1.66	0.750			
0.2241	14344.70	3.9950	3.9951	0.8710	7.63	1.65	0.750			
0.2268	14513.29	3.9920	3.9921	0.8801	7.63	1.65	0.750			
0.2295	14685.07	3.9890	3.9890	0.8845	7.62	1.64	0.750			
0.2321	14854.68	3.9860	3.9861	0.8854	7.62	1.64	0.750			
0.2348	15025.70	3.9830	3.9830	0.8939	7.61	1.63	0.750			
0.2374	15195.02	3.9800	3.9799	0.8917	7.61	1.63	0.750			
0.2401	15367.80	3.9770	3.9770	0.8953	7.60	1.62	0.750			
0.2428	15539.61	3.9740	3.9740	0.8979	7.59	1.61	0.750			
0.2455	15712.97	3.9710	3.9710	0.9059	7.59	1.61	0.750			
0.2482	15886.81	3.9680	3.9680	0.9184	7.58	1.60	0.750			
0.2510	16062.89	3.9650	3.9649	0.9187	7.57	1.59	0.750			
0.2538	16242.09	3.9620	3.9620	0.9112	7.56	1.58	0.750			
0.2565	16417.52	3.9590	3.9591	0.9197	7.56	1.58	0.750			
0.2593	16593.08	3.9560	3.9560	0.9266	7.56	1.58	0.750			
0.2620	16770.34	3.9530	3.9529	0.9306	7.55	1.57	0.750			
0.2649	16950.52	3.9500	3.9500	0.9296	7.54	1.56	0.750			
0.2676	17127.61	3.9470	3.9471	0.9401	7.53	1.55	0.750			
0.2705	17312.28	3.9440	3.9440	0.9531	7.53	1.55	0.750			
0.2734	17498.44	3.9410	3.9410	0.9606	7.52	1.54	0.750			
0.2762	17679.11	3.9380	3.9381	0.9594	7.51	1.53	0.750			
0.2791	17864.01	3.9350	3.9350	0.9634	7.50	1.52	0.750			
0.2820	18049.37	3.9320	3.9319	0.9699	7.49	1.51	0.750			
0.2849	18236.35	3.9290	3.9291	0.9804	7.49	1.51	0.750			
0.2879	18423.33	3.9260	3.9258	0.9860	7.48	1.50	0.750			
0.2909	18616.72	3.9230	3.9230	0.9976	7.47	1.49	0.750			
0.2939	18809.56	3.9200	3.9201	1.0056	7.47	1.49	0.750			
0.2969	19002.54	3.9170	3.9170	1.0147	7.46	1.48	0.750			
0.3000	19199.00	3.9140	3.9139	1.0275	7.45	1.47	0.750			
0.3031	19395.95	3.9110	3.9110	1.0295	7.44	1.46	0.750			
0.3061	19593.02	3.9080	3.9081	1.0397	7.43	1.45	0.750			
0.3093	19794.81	3.9050	3.9050	1.0491	7.42	1.44	0.750			
0.3125	19997.60	3.9020	3.9018	1.0597	7.41	1.43	0.750			
0.3156	20201.43	3.8990	3.8991	1.0652	7.40	1.42	0.750			
0.3188	20405.05	3.8960	3.8961	1.0772	7.39	1.41	0.750			
0.3221	20612.62	3.8930	3.8930	1.0924	7.38	1.40	0.750			
0.3254	20826.07	3.8900	3.8897	1.1058	7.37	1.39	0.750			
0.3287	21036.92	3.8870	3.8870	1.1192	7.36	1.38	0.750			
0.3321	21253.76	3.8840	3.8841	1.1401	7.35	1.37	0.750			
0.3356	21476.00	3.8810	3.8810	1.1573	7.34	1.36	0.750			
0.3390	21698.16	3.8780	3.8781	1.1662	7.33	1.35	0.750			
0.3426	21924.51	3.8750	3.8750	1.1890	7.32	1.34	0.750			
0.3462	22154.60	3.8720	3.8720	1.2031	7.31	1.33	0.750			
0.3498	22388.56	3.8690	3.8688	1.2151	7.30	1.32	0.750			
0.3535	22622.81	3.8660	3.8661	1.2315	7.29	1.31	0.750			
0.3572	22859.29	3.8630	3.8631	1.2464	7.27	1.29	0.750			
0.3610	23104.80	3.8600	3.8599	1.2571	7.26	1.28	0.750			
0.3647	23343.26	3.8570	3.8570	1.2816	7.24	1.26	0.750			
0.3686	23587.44	3.8540	3.8541	1.3003	7.22	1.24	0.750			
0.3725	23840.07	3.8510	3.8511	1.3326	7.20	1.22	0.750			
0.3765	24099.04	3.8480	3.8480	1.3657	7.19	1.21	0.750			
0.3807	24362.76	3.8450	3.8451	1.3912	7.17	1.19	0.750			
0.3849	24633.79	3.8420	3.8420	1.4237	7.16	1.18	0.750			
0.3892	24911.03	3.8390	3.8390	1.4636	7.15	1.17	0.750			
0.3937	25195.02	3.8360	3.8360	1.4793	7.13	1.15	0.750	0.415	1.012	
0.3982	25486.35	3.8330	3.8330	1.5021	7.12	1.14	0.750			
0.4027	25774.21	3.8300	3.8302	1.5452	7.10	1.12	0.750			
0.4075	26077.96	3.8270	3.8268	1.5618	7.08	1.10	0.750			
0.4121	26375.63	3.8240	3.8238	1.5924	7.06	1.08	0.750			
0.4169	26681.99	3.8210	3.8214	1.6423	7.04	1.06	0.750			
0.4220	27006.11	3.8180	3.8177	1.6830	7.02	1.04	0.750			
0.4271	27332.53	3.8150	3.8150	1.7307	7.00	1.02	0.750			
0.4322	27662.87	3.8120	3.8122	1.7731	6.98	1.00	0.750			
0.4378	28022.01	3.8090	3.8089	1.8136	6.95	0.97	0.750			
0.4433	28369.57	3.8060	3.8059	1.8429	6.93	0.95	0.750			
0.4488	28723.94	3.8030	3.8030	1.8903	6.91	0.93	0.750			
0.4545	29085.24	3.8000	3.7999	1.9202	6.89	0.91	0.750			
0.4603	29461.89	3.7970	3.7969	1.9905	6.86	0.88	0.750			
0.4664	29852.63	3.7940	3.7940	2.0261	6.84	0.86	0.750			
0.4725	30240.96	3.7910	3.7911	2.0646	6.81	0.83	0.750			
0.4788	30643.58	3.7880	3.7877	2.1006	6.78	0.80	0.750			
0.4852	31051.83	3.7850	3.7851	2.1554	6.74	0.76	0.750			
0.4917	31471.69	3.7820	3.7820	2.2253	6.71	0.73	0.750			
0.4985	31901.31	3.7790	3.7790	2.2688	6.69	0.71	0.750			
0.5055	32349.30	3.7760	3.7760	2.2902	6.66	0.68	0.750			
0.5123	32786.68	3.7730	3.7731	2.2985	6.63	0.65	0.750			
0.5191	33222.80	3.7700	3.7699	2.3219	6.60	0.62	0.750			
0.5261	33671.84	3.7670	3.7670	2.4076	6.57	0.59	0.750			
0.5335	34144.60	3.7640	3.7640	2.4555	6.53	0.55	0.750			
0.5409	34615.77	3.7610	3.7612	2.4861	6.50	0.52	0.750			
0.5484	35098.85	3.7580	3.7580	2.4842	6.48	0.50	0.750			
0.5560	35583.17	3.7550	3.7551	2.5630	6.44	0.46	0.750			
0.5638	36084.15	3.7520	3.7519	2.6477	6.41	0.43	0.750			
0.5718	36595.88	3.7490	3.7489	2.7074	6.37	0.39	0.750			
0.5802	37130.02	3.7460	3.7459	2.8066	6.33	0.35	0.750			
0.5886	37668.28	3.7430	3.7430	2.8659	6.31	0.33	0.750			
0.5972	38219.48	3.7400	3.7398	3.0102	6.27	0.29	0.750			
0.6064	38811.50	3.7370	3.7370	3.3280	6.23	0.25	0.750			
0.6168	39478.12	3.7340	3.7340	3.3769	6.19	0.21	0.750			
0.6270	40128.48	3.7310	3.7308	3.3147	6.14	0.16	0.750			
0.6365	40735.35	3.7280	3.7279	3.1504	6.11	0.13	0.750			
0.6463	41361.40	3.7250	3.7249	3.0974	6.08	0.10	0.750			
0.6556	41958.48	3.7220	3.7220	2.8605	6.05	0.07	0.750			
0.6637	42479.08	3.7190	3.7191	2.4939	6.03	0.05	0.750			
0.6704	42905.74	3.7160	3.7161	2.1091	6.02	0.04	0.750			
0.6760	43267.14	3.7130	3.7128	1.7812	6.01	0.03	0.750			
0.6809	43578.76	3.7100	3.7101	1.5478	6.00	0.02	0.750			
0.6850	43841.51	3.7070	3.7070	1.3314	5.99	0.01	0.750			
0.6885	44066.57	3.7040	3.7040	1.1722	5.99	0.01	0.750			
0.6918	44272.25	3.7010	3.7009	1.0310	5.98	0.00	0.750			
0.6945	44447.51	3.6980	3.6979	0.9292	5.98	-0.00	0.750			
0.6971	44612.76	3.6950	3.6950	0.8597	5.98	-0.00	0.750			
0.6995	44770.25	3.6920	3.6919	0.7953	5.97	-0.01	0.750			
0.7018	44916.69	3.6890	3.6890	0.7309	5.97	-0.01	0.750			
0.7039	45052.11	3.6860	3.6862	0.6699	5.97	-0.01	0.750			
0.7059	45175.76	3.6830	3.6830	0.6121	5.97	-0.01	0.750			
0.7076	45288.99	3.6800	3.6799	0.5526	5.98	-0.00	0.750			
0.7091	45385.06	3.6770	3.6770	0.4885	5.98	-0.00	0.750			
0.7105	45472.01	3.6740	3.6741	0.4350	5.98	-0.00	0.750			
0.7117	45550.81	3.6710	3.6710	0.3884	5.98	-0.00	0.750			
0.7128	45620.14	3.6680	3.6677	0.3432	5.98	0.00	0.750			
0.7138	45680.27	3.6650	3.6650	0.3001	5.98	0.00	0.750			
0.7146	45733.89	3.6620	3.6618	0.2577	5.98	0.00	0.750			
0.7153	45779.98	3.6590	3.6589	0.2193	5.98	0.00	0.750			
0.7159	45818.33	3.6560	3.6560	0.1786	5.98	0.00	0.750			
0.7164	45849.59	3.6530	3.6531	0.1386	5.98	0.00	0.750			
0.7168	45872.08	3.6500	3.6505	0.0957	5.98	0.00	0.750			
0.7170	45886.71	3.6470	3.6477	0.0514	5.98	0.00	0.750			
0.7171	45892.46	3.6440	3.6464	0.0035	5.98	0.00	0.750			
