Ah_balance (normalized)	Ah_balance (mAh)	Voltage - fit (V)	Voltage -  interpolate (V)	dQ/dV (1/V)	Temperature (°C)	Temperature - diff (°C)	Current (C)	R_DC 0ms (mOhm)	R_DC 50ms (mOhm)	R_DC 50 ms PEC (mOhm)
0.1816	11621.61	4.0800	4.0799	0.7558	7.31	1.34	0.750			
0.1839	11768.61	4.0770	4.0771	0.7678	7.31	1.34	0.750			
0.1862	11916.30	4.0740	4.0741	0.7732	7.30	1.33	0.750			
0.1885	12065.76	4.0710	4.0710	0.7700	7.30	1.33	0.750			
0.1908	12214.05	4.0680	4.0680	0.7765	7.30	1.33	0.750			
0.1931	12359.96	4.0650	4.0651	0.7793	7.29	1.32	0.750			
0.1955	12510.42	4.0620	4.0615	0.7843	7.29	1.32	0.750			
0.1979	12663.26	4.0590	4.0591	0.7927	7.29	1.32	0.750			
0.2003	12816.27	4.0560	4.0560	0.7933	7.28	1.31	0.750			
0.2027	12969.73	4.0530	4.0531	0.8016	7.28	1.31	0.750			
0.2050	13121.99	4.0500	4.0500	0.8003	7.27	1.30	0.750			
0.2075	13277.54	4.0470	4.0468	0.8044	7.27	1.30	0.750			
0.2099	13431.12	4.0440	4.0441	0.8075	7.27	1.30	0.750			
0.2123	13588.35	4.0410	4.0411	0.8137	7.26	1.29	0.750			
0.2148	13745.45	4.0380	4.0380	0.8222	7.26	1.29	0.750			
0.2172	13903.30	4.0350	4.0350	0.8195	7.25	1.28	0.750			
0.2197	14061.90	4.0320	4.0319	0.8220	7.25	1.28	0.750			
0.2222	14218.89	4.0290	4.0291	0.8258	7.25	1.28	0.750			
0.2247	14382.25	4.0260	4.0260	0.8174	7.24	1.27	0.750			
0.2271	14537.11	4.0230	4.0230	0.8185	7.24	1.27	0.750			
0.2296	14692.43	4.0200	4.0199	0.8212	7.24	1.27	0.750			
0.2320	14846.94	4.0170	4.0174	0.8207	7.23	1.26	0.750			
0.2345	15006.15	4.0140	4.0141	0.8343	7.23	1.26	0.750			
0.2371	15171.28	4.0110	4.0108	0.8290	7.22	1.25	0.750			
0.2395	15328.68	4.0080	4.0081	0.8394	7.22	1.25	0.750			
0.2421	15493.04	4.0050	4.0052	0.8479	7.22	1.25	0.750			
0.2446	15652.92	4.0020	4.0018	0.8451	7.21	1.24	0.750			
0.2471	15815.34	3.9990	3.9991	0.8475	7.21	1.24	0.750			
0.2496	15977.01	3.9960	3.9962	0.8440	7.20	1.23	0.750			
0.2522	16139.05	3.9930	3.9931	0.8483	7.19	1.22	0.750			
0.2548	16304.90	3.9900	3.9900	0.8486	7.19	1.22	0.750			
0.2573	16467.64	3.9870	3.9869	0.8552	7.18	1.21	0.750			
0.2599	16632.29	3.9840	3.9841	0.8620	7.18	1.21	0.750			
0.2625	16798.09	3.9810	3.9810	0.8624	7.17	1.20	0.750			
0.2651	16964.07	3.9780	3.9780	0.8716	7.16	1.19	0.750			
0.2677	17132.04	3.9750	3.9751	0.8735	7.16	1.19	0.750			
0.2703	17300.45	3.9720	3.9717	0.8802	7.15	1.18	0.750			
0.2730	17472.45	3.9690	3.9690	0.8796	7.14	1.17	0.750			
0.2757	17641.64	3.9660	3.9661	0.8816	7.14	1.17	0.750			
0.2783	17811.69	3.9630	3.9630	0.8861	7.13	1.16	0.750			
0.2809	17979.19	3.9600	3.9601	0.8890	7.12	1.15	0.750			
0.2836	18148.60	3.9570	3.9570	0.8937	7.12	1.15	0.750			
0.2863	18323.76	3.9540	3.9540	0.8949	7.12	1.15	0.750			
0.2890	18496.38	3.9510	3.9510	0.9048	7.12	1.15	0.750			
0.2917	18671.15	3.9480	3.9481	0.9131	7.11	1.14	0.750			
0.2945	18847.27	3.9450	3.9449	0.9138	7.11	1.14	0.750			
0.2973	19025.42	3.9420	3.9420	0.9090	7.10	1.13	0.750			
0.2999	19196.06	3.9390	3.9391	0.9152	7.10	1.13	0.750			
0.3027	19373.09	3.9360	3.9361	0.9270	7.09	1.12	0.750			
0.3055	19552.21	3.9330	3.9330	0.9420	7.08	1.11	0.750			
0.3083	19731.07	3.9300	3.9298	0.9450	7.07	1.10	0.750			
0.3112	19914.58	3.9270	3.9271	0.9537	7.06	1.09	0.750			
0.3141	20101.15	3.9240	3.9240	0.9667	7.06	1.09	0.750			
0.3170	20287.53	3.9210	3.9211	0.9755	7.06	1.09	0.750			
0.3199	20473.49	3.9180	3.9178	0.9766	7.05	1.08	0.750			
0.3229	20663.87	3.9150	3.9150	0.9803	7.04	1.07	0.750			
0.3258	20850.31	3.9120	3.9121	0.9974	7.03	1.06	0.750			
0.3288	21043.51	3.9090	3.9091	1.0125	7.02	1.05	0.750			
0.3319	21239.48	3.9060	3.9058	1.0136	7.01	1.04	0.750			
0.3350	21439.03	3.9030	3.9030	1.0124	7.01	1.04	0.750			
0.3380	21631.72	3.9000	3.9002	1.0275	7.00	1.03	0.750			
0.3411	21830.06	3.8970	3.8971	1.0383	7.00	1.03	0.750			
0.3442	22028.03	3.8940	3.8939	1.0471	6.99	1.02	0.750			
0.3474	22231.81	3.8910	3.8911	1.0505	6.99	1.02	0.750			
0.3505	22433.51	3.8880	3.8881	1.0751	6.98	1.01	0.750			
0.3538	22642.80	3.8850	3.8850	1.0967	6.98	1.01	0.750			
0.3572	22858.31	3.8820	3.8818	1.1118	6.97	1.00	0.750			
0.3604	23068.44	3.8790	3.8791	1.1151	6.96	0.99	0.750			
0.3638	23285.57	3.8760	3.8761	1.1342	6.95	0.98	0.750			
0.3673	23504.91	3.8730	3.8730	1.1488	6.94	0.97	0.750			
0.3707	23726.76	3.8700	3.8699	1.1572	6.93	0.96	0.750			
0.3742	23948.38	3.8670	3.8670	1.1559	6.92	0.95	0.750			
0.3777	24169.60	3.8640	3.8641	1.1749	6.91	0.94	0.750			
0.3812	24399.27	3.8610	3.8611	1.1884	6.90	0.93	0.750			
0.3848	24626.25	3.8580	3.8580	1.2048	6.88	0.91	0.750			
0.3884	24858.28	3.8550	3.8551	1.2274	6.87	0.90	0.750			
0.3921	25096.13	3.8520	3.8522	1.2581	6.86	0.89	0.750			
0.3960	25347.04	3.8490	3.8487	1.2878	6.85	0.88	0.750			
0.3999	25594.23	3.8460	3.8461	1.2818	6.84	0.87	0.750			
0.4037	25834.93	3.8430	3.8431	1.3175	6.84	0.87	0.750			
0.4077	26091.60	3.8400	3.8399	1.3539	6.83	0.86	0.750			
0.4118	26352.20	3.8370	3.8371	1.3872	6.82	0.85	0.750	0.378	0.912	
0.4160	26622.98	3.8340	3.8343	1.4253	6.80	0.83	0.750			
0.4204	26902.55	3.8310	3.8309	1.4452	6.79	0.82	0.750			
0.4248	27185.31	3.8280	3.8281	1.4735	6.78	0.81	0.750			
0.4293	27472.45	3.8250	3.8251	1.4639	6.76	0.79	0.750			
0.4337	27754.18	3.8220	3.8220	1.4934	6.75	0.78	0.750			
0.4382	28044.12	3.8190	3.8191	1.4878	6.73	0.76	0.750			
0.4426	28328.39	3.8160	3.8161	1.5337	6.72	0.75	0.750			
0.4472	28623.61	3.8130	3.8129	1.5887	6.70	0.73	0.750			
0.4520	28926.71	3.8100	3.8096	1.6322	6.69	0.72	0.750			
0.4570	29249.56	3.8070	3.8071	1.6924	6.67	0.70	0.750			
0.4623	29584.51	3.8040	3.8041	1.7074	6.65	0.68	0.750			
0.4676	29923.76	3.8010	3.8012	1.7403	6.62	0.65	0.750			
0.4726	30248.99	3.7980	3.7980	1.7635	6.60	0.63	0.750			
0.4779	30582.76	3.7950	3.7951	1.7891	6.59	0.62	0.750			
0.4832	30926.17	3.7920	3.7917	1.8338	6.57	0.60	0.750			
0.4889	31288.47	3.7890	3.7890	1.9012	6.56	0.59	0.750			
0.4947	31659.27	3.7860	3.7857	1.9107	6.55	0.58	0.750			
0.5004	32024.99	3.7830	3.7830	1.9269	6.53	0.56	0.750			
0.5063	32405.05	3.7800	3.7801	1.9505	6.50	0.53	0.750			
0.5124	32791.17	3.7770	3.7767	1.9715	6.48	0.51	0.750			
0.5182	33165.39	3.7740	3.7743	2.0343	6.46	0.49	0.750			
0.5244	33561.29	3.7710	3.7712	2.0155	6.44	0.47	0.750			
0.5304	33943.66	3.7680	3.7683	2.0306	6.42	0.45	0.750			
0.5365	34335.88	3.7650	3.7648	2.0484	6.40	0.43	0.750			
0.5427	34731.19	3.7620	3.7623	2.0886	6.38	0.41	0.750			
0.5491	35141.39	3.7590	3.7588	2.1132	6.35	0.38	0.750			
0.5552	35535.66	3.7560	3.7563	2.1355	6.32	0.35	0.750			
0.5617	35946.67	3.7530	3.7528	2.2019	6.30	0.33	0.750			
0.5683	36369.52	3.7500	3.7501	2.2485	6.28	0.31	0.750			
0.5755	36830.54	3.7470	3.7470	2.3368	6.25	0.28	0.750			
0.5823	37268.59	3.7440	3.7439	2.3455	6.23	0.26	0.750			
0.5893	37716.70	3.7410	3.7407	2.4959	6.21	0.24	0.750			
0.5970	38208.49	3.7380	3.7379	2.4378	6.18	0.21	0.750			
0.6046	38693.90	3.7350	3.7354	2.5079	6.15	0.18	0.750			
0.6117	39149.20	3.7320	3.7319	2.5715	6.12	0.15	0.750			
0.6195	39647.65	3.7290	3.7288	2.6638	6.10	0.13	0.750			
0.6280	40193.37	3.7260	3.7261	2.7696	6.08	0.11	0.750			
0.6363	40725.94	3.7230	3.7230	2.7507	6.06	0.09	0.750			
0.6447	41258.28	3.7200	3.7199	2.6656	6.03	0.06	0.750			
0.6525	41757.87	3.7170	3.7171	2.5125	6.02	0.05	0.750			
0.6597	42221.36	3.7140	3.7139	2.3321	6.01	0.04	0.750			
0.6666	42664.76	3.7110	3.7112	2.1410	6.00	0.03	0.750			
0.6729	43068.55	3.7080	3.7080	1.9633	5.99	0.02	0.750			
0.6781	43397.46	3.7050	3.7056	1.6889	5.98	0.01	0.750			
0.6826	43684.18	3.7020	3.7018	1.4442	5.97	0.00	0.750			
0.6867	43946.97	3.6990	3.6989	1.2921	5.96	-0.01	0.750			
0.6901	44166.93	3.6960	3.6961	1.1589	5.96	-0.01	0.750			
0.6933	44374.37	3.6930	3.6930	1.0658	5.95	-0.02	0.750			
0.6963	44564.77	3.6900	3.6900	0.9866	5.95	-0.02	0.750			
0.6992	44746.71	3.6870	3.6870	0.9279	5.95	-0.02	0.750			
0.7018	44916.95	3.6840	3.6840	0.8805	5.95	-0.02	0.750			
0.7044	45080.17	3.6810	3.6810	0.8401	5.95	-0.02	0.750			
0.7068	45235.89	3.6780	3.6780	0.7948	5.95	-0.02	0.750			
0.7092	45386.50	3.6750	3.6750	0.7591	5.95	-0.02	0.750			
0.7114	45529.41	3.6720	3.6720	0.7168	5.96	-0.01	0.750			
0.7135	45663.52	3.6690	3.6691	0.6734	5.96	-0.01	0.750			
0.7155	45789.94	3.6660	3.6660	0.6258	5.96	-0.01	0.750			
0.7172	45903.51	3.6630	3.6630	0.5789	5.97	-0.00	0.750			
0.7189	46009.61	3.6600	3.6601	0.5358	5.97	-0.00	0.750			
0.7204	46107.18	3.6570	3.6566	0.4961	5.97	0.00	0.750			
0.7219	46198.76	3.6540	3.6540	0.4567	5.97	0.00	0.750			
0.7232	46282.96	3.6510	3.6510	0.4189	5.97	0.00	0.750			
0.7244	46360.56	3.6480	3.6480	0.3824	5.98	0.01	0.750			
0.7255	46429.57	3.6450	3.6451	0.3416	5.98	0.01	0.750			
0.7264	46491.64	3.6420	3.6419	0.3071	5.98	0.01	0.750			
0.7273	46546.33	3.6390	3.6391	0.2702	5.98	0.01	0.750			
0.7281	46595.77	3.6360	3.6359	0.2319	5.98	0.01	0.750			
0.7287	46637.90	3.6330	3.6329	0.1981	5.98	0.01	0.750			
0.7293	46672.34	3.6300	3.6301	0.1594	5.98	0.01	0.750			
0.7297	46699.32	3.6270	3.6273	0.1203	5.98	0.01	0.750			
0.7300	46720.13	3.6240	3.6241	0.0800	5.99	0.02	0.750			
0.7302	46732.94	3.6210	3.6206	0.0338	5.99	0.02	0.750			
0.7302	46734.96	3.6180	3.6195	-0.0127	5.99	0.02	0.750			
