Ah_balance (normalized)	Ah_balance (mAh)	Voltage - fit (V)	Voltage -  interpolate (V)	dQ/dV (1/V)	Temperature (°C)	Temperature - diff (°C)	Current (C)	R_DC 0ms (mOhm)	R_DC 50ms (mOhm)	R_DC 50 ms PEC (mOhm)
0.1796	11497.60	4.0810	4.0810	0.7775	7.76	1.81	0.750			
0.1820	11648.44	4.0780	4.0780	0.7834	7.76	1.81	0.750			
0.1843	11795.43	4.0750	4.0751	0.7785	7.75	1.80	0.750			
0.1867	11946.28	4.0720	4.0721	0.7815	7.75	1.80	0.750			
0.1890	12096.90	4.0690	4.0688	0.7857	7.74	1.79	0.750			
0.1914	12247.06	4.0660	4.0661	0.7839	7.74	1.79	0.750			
0.1937	12399.37	4.0630	4.0630	0.7815	7.73	1.78	0.750			
0.1961	12548.06	4.0600	4.0599	0.7856	7.72	1.77	0.750			
0.1984	12699.27	4.0570	4.0570	0.7889	7.72	1.77	0.750			
0.2008	12848.67	4.0540	4.0541	0.7911	7.71	1.76	0.750			
0.2032	13001.98	4.0510	4.0510	0.7976	7.71	1.76	0.750			
0.2056	13157.64	4.0480	4.0480	0.7992	7.70	1.75	0.750			
0.2080	13311.28	4.0450	4.0451	0.8056	7.69	1.74	0.750			
0.2104	13466.20	4.0420	4.0420	0.8119	7.68	1.73	0.750			
0.2128	13620.66	4.0390	4.0391	0.8097	7.68	1.73	0.750			
0.2153	13776.05	4.0360	4.0359	0.8138	7.67	1.72	0.750			
0.2177	13934.82	4.0330	4.0331	0.8091	7.66	1.71	0.750			
0.2202	14090.88	4.0300	4.0301	0.8166	7.65	1.70	0.750			
0.2226	14246.76	4.0270	4.0270	0.8201	7.64	1.69	0.750			
0.2251	14403.97	4.0240	4.0240	0.8214	7.64	1.69	0.750			
0.2275	14560.85	4.0210	4.0208	0.8236	7.63	1.68	0.750			
0.2300	14722.48	4.0180	4.0180	0.8262	7.62	1.67	0.750			
0.2325	14881.47	4.0150	4.0151	0.8336	7.61	1.66	0.750			
0.2350	15042.51	4.0120	4.0119	0.8389	7.60	1.65	0.750			
0.2375	15202.50	4.0090	4.0091	0.8347	7.60	1.65	0.750			
0.2400	15363.02	4.0060	4.0058	0.8346	7.59	1.64	0.750			
0.2426	15525.45	4.0030	4.0030	0.8339	7.58	1.63	0.750			
0.2451	15684.19	4.0000	4.0001	0.8429	7.57	1.62	0.750			
0.2476	15845.91	3.9970	3.9970	0.8493	7.56	1.61	0.750			
0.2501	16009.17	3.9940	3.9940	0.8520	7.56	1.61	0.750			
0.2527	16173.85	3.9910	3.9910	0.8594	7.55	1.60	0.750			
0.2553	16341.66	3.9880	3.9881	0.8636	7.54	1.59	0.750			
0.2579	16508.72	3.9850	3.9851	0.8720	7.53	1.58	0.750			
0.2606	16676.18	3.9820	3.9819	0.8725	7.52	1.57	0.750			
0.2632	16842.31	3.9790	3.9791	0.8716	7.51	1.56	0.750			
0.2658	17010.25	3.9760	3.9760	0.8763	7.51	1.56	0.750			
0.2684	17178.95	3.9730	3.9731	0.8800	7.49	1.54	0.750			
0.2711	17349.21	3.9700	3.9700	0.8854	7.48	1.53	0.750			
0.2738	17521.11	3.9670	3.9670	0.8907	7.47	1.52	0.750			
0.2764	17689.76	3.9640	3.9639	0.8938	7.46	1.51	0.750			
0.2791	17862.05	3.9610	3.9610	0.8987	7.45	1.50	0.750			
0.2818	18035.46	3.9580	3.9580	0.8940	7.44	1.49	0.750			
0.2845	18206.35	3.9550	3.9551	0.9018	7.43	1.48	0.750			
0.2872	18379.07	3.9520	3.9521	0.9059	7.42	1.47	0.750			
0.2899	18551.83	3.9490	3.9487	0.9183	7.41	1.46	0.750			
0.2926	18729.39	3.9460	3.9460	0.9213	7.40	1.45	0.750			
0.2954	18906.76	3.9430	3.9431	0.9290	7.39	1.44	0.750			
0.2983	19089.30	3.9400	3.9400	0.9375	7.38	1.43	0.750			
0.3011	19271.41	3.9370	3.9370	0.9226	7.37	1.42	0.750			
0.3039	19447.02	3.9340	3.9341	0.9185	7.36	1.41	0.750			
0.3066	19619.24	3.9310	3.9312	0.9159	7.35	1.40	0.750			
0.3092	19791.48	3.9280	3.9277	0.9226	7.34	1.39	0.750			
0.3120	19967.66	3.9250	3.9250	0.9384	7.32	1.37	0.750			
0.3148	20147.65	3.9220	3.9217	0.9529	7.31	1.36	0.750			
0.3177	20333.71	3.9190	3.9192	0.9750	7.30	1.35	0.750			
0.3207	20526.08	3.9160	3.9159	0.9934	7.28	1.33	0.750			
0.3237	20718.14	3.9130	3.9131	1.0032	7.27	1.32	0.750			
0.3268	20912.06	3.9100	3.9100	1.0066	7.25	1.30	0.750			
0.3298	21109.77	3.9070	3.9069	1.0013	7.24	1.29	0.750			
0.3328	21300.93	3.9040	3.9041	1.0187	7.24	1.29	0.750			
0.3358	21494.18	3.9010	3.9012	1.0298	7.23	1.28	0.750			
0.3389	21691.51	3.8980	3.8977	1.0402	7.22	1.27	0.750			
0.3421	21892.93	3.8950	3.8951	1.0505	7.21	1.26	0.750			
0.3452	22094.96	3.8920	3.8921	1.0690	7.20	1.25	0.750			
0.3485	22302.76	3.8890	3.8891	1.0865	7.18	1.23	0.750			
0.3519	22519.39	3.8860	3.8857	1.0978	7.17	1.22	0.750			
0.3551	22725.03	3.8830	3.8831	1.1023	7.15	1.20	0.750			
0.3584	22938.33	3.8800	3.8800	1.1173	7.13	1.18	0.750			
0.3618	23154.38	3.8770	3.8771	1.1310	7.12	1.17	0.750			
0.3652	23373.91	3.8740	3.8738	1.1241	7.10	1.15	0.750			
0.3686	23587.84	3.8710	3.8711	1.1474	7.08	1.13	0.750			
0.3720	23810.09	3.8680	3.8680	1.1688	7.07	1.12	0.750			
0.3756	24038.63	3.8650	3.8650	1.1854	7.06	1.11	0.750			
0.3792	24266.32	3.8620	3.8621	1.1979	7.04	1.09	0.750			
0.3828	24499.12	3.8590	3.8591	1.2206	7.03	1.08	0.750			
0.3865	24736.47	3.8560	3.8561	1.2403	7.01	1.06	0.750			
0.3902	24974.91	3.8530	3.8530	1.2430	7.00	1.05	0.750			
0.3940	25215.07	3.8500	3.8501	1.2625	6.98	1.03	0.750			
0.3977	25455.79	3.8470	3.8471	1.2938	6.97	1.02	0.750			
0.4016	25704.01	3.8440	3.8438	1.3270	6.95	1.00	0.750			
0.4056	25961.11	3.8410	3.8411	1.3628	6.93	0.98	0.750			
0.4098	26228.08	3.8380	3.8378	1.4018	6.91	0.96	0.750	0.386	0.926	
0.4141	26504.75	3.8350	3.8351	1.4251	6.89	0.94	0.750			
0.4184	26780.48	3.8320	3.8322	1.4474	6.87	0.92	0.750			
0.4229	27064.14	3.8290	3.8291	1.4765	6.85	0.90	0.750			
0.4274	27351.06	3.8260	3.8257	1.4814	6.83	0.88	0.750			
0.4317	27625.72	3.8230	3.8231	1.4989	6.81	0.86	0.750			
0.4362	27919.84	3.8200	3.8202	1.5283	6.79	0.84	0.750			
0.4409	28215.09	3.8170	3.8170	1.5687	6.77	0.82	0.750			
0.4455	28514.84	3.8140	3.8142	1.5888	6.75	0.80	0.750			
0.4504	28823.66	3.8110	3.8110	1.6350	6.74	0.79	0.750			
0.4555	29151.76	3.8080	3.8081	1.6383	6.71	0.76	0.750			
0.4603	29461.57	3.8050	3.8051	1.6646	6.69	0.74	0.750			
0.4652	29772.99	3.8020	3.8024	1.6268	6.67	0.72	0.750			
0.4701	30087.05	3.7990	3.7993	1.6446	6.64	0.69	0.750			
0.4749	30395.09	3.7960	3.7969	1.7550	6.62	0.67	0.750			
0.4803	30736.03	3.7930	3.7931	1.8413	6.59	0.64	0.750			
0.4860	31107.04	3.7900	3.7898	1.8956	6.57	0.62	0.750			
0.4921	31496.88	3.7870	3.7871	1.9013	6.54	0.59	0.750			
0.4975	31838.07	3.7840	3.7846	1.8337	6.51	0.56	0.750			
0.5025	32162.11	3.7810	3.7822	1.9290	6.49	0.54	0.750			
0.5084	32534.55	3.7780	3.7775	2.0529	6.46	0.51	0.750			
0.5146	32931.80	3.7750	3.7750	2.0912	6.44	0.49	0.750			
0.5215	33378.11	3.7720	3.7723	2.1098	6.40	0.45	0.750			
0.5274	33751.21	3.7690	3.7694	2.0368	6.37	0.42	0.750			
0.5335	34144.02	3.7660	3.7658	2.0365	6.35	0.40	0.750			
0.5396	34531.69	3.7630	3.7630	2.0301	6.33	0.38	0.750			
0.5457	34927.70	3.7600	3.7597	2.0566	6.30	0.35	0.750			
0.5519	35324.53	3.7570	3.7569	2.0742	6.27	0.32	0.750			
0.5582	35725.98	3.7540	3.7543	2.0705	6.24	0.29	0.750			
0.5645	36127.68	3.7510	3.7510	2.1258	6.21	0.26	0.750			
0.5708	36534.01	3.7480	3.7483	2.2095	6.19	0.24	0.750			
0.5776	36966.32	3.7450	3.7450	2.3096	6.17	0.22	0.750			
0.5847	37421.24	3.7420	3.7421	2.3718	6.14	0.19	0.750			
0.5922	37900.57	3.7390	3.7390	2.4181	6.11	0.16	0.750			
0.5994	38359.73	3.7360	3.7360	2.4462	6.08	0.13	0.750			
0.6068	38833.26	3.7330	3.7330	2.5035	6.05	0.10	0.750			
0.6145	39325.17	3.7300	3.7301	2.5548	6.03	0.08	0.750			
0.6223	39828.05	3.7270	3.7271	2.5881	6.01	0.06	0.750			
0.6296	40297.37	3.7240	3.7240	2.4786	5.98	0.03	0.750			
0.6371	40773.62	3.7210	3.7209	2.3710	5.96	0.01	0.750			
0.6443	41232.38	3.7180	3.7181	2.3094	5.94	-0.01	0.750			
0.6510	41661.83	3.7150	3.7148	2.1284	5.93	-0.02	0.750			
0.6571	42054.52	3.7120	3.7120	1.9483	5.93	-0.02	0.750			
0.6626	42408.26	3.7090	3.7091	1.7359	5.93	-0.02	0.750			
0.6675	42720.94	3.7060	3.7064	1.5574	5.93	-0.02	0.750			
0.6718	42996.15	3.7030	3.7031	1.3836	5.93	-0.02	0.750			
0.6757	43243.98	3.7000	3.6998	1.2575	5.93	-0.02	0.750			
0.6791	43462.63	3.6970	3.6970	1.1261	5.93	-0.02	0.750			
0.6822	43661.15	3.6940	3.6943	1.0446	5.92	-0.03	0.750			
0.6852	43850.71	3.6910	3.6910	0.9918	5.92	-0.03	0.750			
0.6880	44033.72	3.6880	3.6878	0.9333	5.91	-0.04	0.750			
0.6908	44208.16	3.6850	3.6850	0.8940	5.91	-0.04	0.750			
0.6934	44378.55	3.6820	3.6821	0.8692	5.92	-0.03	0.750			
0.6960	44543.14	3.6790	3.6791	0.8389	5.92	-0.03	0.750			
0.6985	44701.69	3.6760	3.6759	0.8071	5.92	-0.03	0.750			
0.7008	44850.58	3.6730	3.6730	0.7688	5.93	-0.02	0.750			
0.7031	44996.33	3.6700	3.6700	0.7407	5.93	-0.02	0.750			
0.7053	45137.59	3.6670	3.6670	0.7086	5.94	-0.01	0.750			
0.7074	45270.77	3.6640	3.6641	0.6721	5.94	-0.01	0.750			
0.7093	45396.48	3.6610	3.6610	0.6309	5.94	-0.01	0.750			
0.7111	45512.98	3.6580	3.6579	0.5941	5.94	-0.01	0.750			
0.7128	45621.63	3.6550	3.6551	0.5595	5.95	-0.00	0.750			
0.7145	45725.34	3.6520	3.6517	0.5286	5.95	-0.00	0.750			
0.7160	45824.39	3.6490	3.6490	0.4956	5.95	0.00	0.750			
0.7175	45917.55	3.6460	3.6461	0.4626	5.95	0.00	0.750			
0.7188	46004.50	3.6430	3.6430	0.4269	5.96	0.01	0.750			
0.7201	46083.69	3.6400	3.6400	0.3893	5.96	0.01	0.750			
0.7211	46152.59	3.6370	3.6370	0.3503	5.96	0.01	0.750			
0.7221	46215.98	3.6340	3.6339	0.3157	5.96	0.01	0.750			
0.7230	46272.32	3.6310	3.6310	0.2816	5.96	0.01	0.750			
0.7238	46324.84	3.6280	3.6281	0.2465	5.96	0.01	0.750			
0.7245	46369.80	3.6250	3.6249	0.2136	5.97	0.02	0.750			
0.7251	46407.99	3.6220	3.6220	0.1775	5.97	0.02	0.750			
0.7256	46439.23	3.6190	3.6192	0.1396	5.97	0.02	0.750			
0.7260	46462.85	3.6160	3.6164	0.0992	5.97	0.02	0.750			
0.7262	46477.88	3.6130	3.6139	0.0574	5.97	0.02	0.750			
0.7263	46484.86	3.6100	3.6115	0.0024	5.97	0.02	0.750			
