Ah_balance (normalized)	Ah_balance (mAh)	Voltage - fit (V)	Voltage -  interpolate (V)	dQ/dV (1/V)	Temperature (°C)	Temperature - diff (°C)	Current (C)	R_DC 0ms (mOhm)	R_DC 50ms (mOhm)	R_DC 50 ms PEC (mOhm)
0.1754	11227.08	4.0830	4.0831	0.8042	7.72	1.75	0.750			
0.1778	11377.49	4.0800	4.0799	0.7713	7.71	1.74	0.750			
0.1800	11522.89	4.0770	4.0770	0.7637	7.70	1.73	0.750			
0.1823	11669.54	4.0740	4.0741	0.7643	7.70	1.73	0.750			
0.1846	11815.60	4.0710	4.0709	0.7706	7.69	1.72	0.750			
0.1869	11963.26	4.0680	4.0681	0.7751	7.68	1.71	0.750			
0.1893	12112.17	4.0650	4.0649	0.7747	7.67	1.70	0.750			
0.1916	12262.43	4.0620	4.0621	0.7822	7.67	1.70	0.750			
0.1940	12413.29	4.0590	4.0590	0.7840	7.66	1.69	0.750			
0.1963	12563.79	4.0560	4.0556	0.7867	7.65	1.68	0.750			
0.1987	12715.43	4.0530	4.0531	0.7881	7.64	1.67	0.750			
0.2011	12867.53	4.0500	4.0500	0.7814	7.64	1.67	0.750			
0.2034	13017.51	4.0470	4.0471	0.7913	7.63	1.66	0.750			
0.2058	13170.22	4.0440	4.0439	0.7970	7.62	1.65	0.750			
0.2082	13321.62	4.0410	4.0410	0.7971	7.61	1.64	0.750			
0.2105	13475.07	4.0380	4.0381	0.8044	7.61	1.64	0.750			
0.2130	13631.56	4.0350	4.0351	0.8063	7.60	1.63	0.750			
0.2154	13787.29	4.0320	4.0320	0.8132	7.59	1.62	0.750			
0.2179	13944.10	4.0290	4.0290	0.8197	7.58	1.61	0.750			
0.2203	14099.59	4.0260	4.0261	0.8160	7.57	1.60	0.750			
0.2228	14257.76	4.0230	4.0231	0.8183	7.57	1.60	0.750			
0.2253	14416.34	4.0200	4.0200	0.8179	7.56	1.59	0.750			
0.2277	14572.14	4.0170	4.0171	0.8220	7.56	1.59	0.750			
0.2302	14730.49	4.0140	4.0140	0.8280	7.55	1.58	0.750			
0.2326	14888.50	4.0110	4.0110	0.8276	7.54	1.57	0.750			
0.2351	15047.95	4.0080	4.0081	0.8299	7.54	1.57	0.750			
0.2376	15209.40	4.0050	4.0050	0.8339	7.53	1.56	0.750			
0.2401	15369.18	4.0020	4.0021	0.8384	7.52	1.55	0.750			
0.2427	15529.83	3.9990	3.9990	0.8437	7.51	1.54	0.750			
0.2452	15690.83	3.9960	3.9960	0.8481	7.50	1.53	0.750			
0.2477	15854.17	3.9930	3.9931	0.8569	7.49	1.52	0.750			
0.2503	16021.57	3.9900	3.9901	0.8617	7.48	1.51	0.750			
0.2529	16188.02	3.9870	3.9870	0.8633	7.48	1.51	0.750			
0.2555	16348.85	3.9840	3.9841	0.8997	7.48	1.51	0.750			
0.2581	16520.35	3.9810	3.9810	0.9185	7.47	1.50	0.750			
0.2610	16703.00	3.9780	3.9777	0.9282	7.46	1.49	0.750			
0.2639	16887.70	3.9750	3.9752	0.9359	7.45	1.48	0.750			
0.2667	17071.35	3.9720	3.9722	0.9295	7.45	1.48	0.750			
0.2696	17255.49	3.9690	3.9690	0.9266	7.44	1.47	0.750			
0.2723	17426.54	3.9660	3.9659	0.9083	7.43	1.46	0.750			
0.2749	17592.74	3.9630	3.9630	0.8906	7.42	1.45	0.750			
0.2776	17763.44	3.9600	3.9600	0.8984	7.41	1.44	0.750			
0.2803	17937.26	3.9570	3.9570	0.9053	7.40	1.43	0.750			
0.2830	18113.24	3.9540	3.9539	0.9133	7.38	1.41	0.750			
0.2858	18288.73	3.9510	3.9510	0.9154	7.37	1.40	0.750			
0.2885	18463.31	3.9480	3.9481	0.9143	7.36	1.39	0.750			
0.2912	18639.35	3.9450	3.9451	0.9209	7.35	1.38	0.750			
0.2940	18815.03	3.9420	3.9421	0.9309	7.34	1.37	0.750			
0.2968	18994.03	3.9390	3.9386	0.9373	7.33	1.36	0.750			
0.2996	19175.66	3.9360	3.9361	0.9422	7.32	1.35	0.750			
0.3025	19357.14	3.9330	3.9331	0.9529	7.31	1.34	0.750			
0.3054	19543.21	3.9300	3.9301	0.9650	7.30	1.33	0.750			
0.3082	19727.40	3.9270	3.9269	0.9646	7.29	1.32	0.750			
0.3112	19914.05	3.9240	3.9240	0.9698	7.28	1.31	0.750			
0.3141	20100.37	3.9210	3.9211	0.9776	7.27	1.30	0.750			
0.3170	20289.27	3.9180	3.9180	0.9909	7.25	1.28	0.750			
0.3200	20480.48	3.9150	3.9151	0.9948	7.24	1.27	0.750			
0.3230	20673.88	3.9120	3.9120	1.0004	7.22	1.25	0.750			
0.3260	20865.86	3.9090	3.9090	1.0087	7.21	1.24	0.750			
0.3291	21059.92	3.9060	3.9061	1.0196	7.20	1.23	0.750			
0.3321	21256.62	3.9030	3.9030	1.0299	7.19	1.22	0.750			
0.3352	21453.93	3.9000	3.8999	1.0353	7.18	1.21	0.750			
0.3383	21654.00	3.8970	3.8970	1.0471	7.16	1.19	0.750			
0.3415	21856.14	3.8940	3.8941	1.0626	7.15	1.18	0.750			
0.3447	22061.10	3.8910	3.8910	1.0756	7.14	1.17	0.750			
0.3480	22268.86	3.8880	3.8880	1.0843	7.13	1.16	0.750			
0.3512	22476.56	3.8850	3.8850	1.1008	7.12	1.15	0.750			
0.3545	22690.71	3.8820	3.8820	1.1177	7.10	1.13	0.750			
0.3579	22907.68	3.8790	3.8790	1.1351	7.09	1.12	0.750			
0.3614	23127.40	3.8760	3.8760	1.1381	7.08	1.11	0.750			
0.3648	23346.64	3.8730	3.8731	1.1480	7.06	1.09	0.750			
0.3682	23567.35	3.8700	3.8701	1.1649	7.05	1.08	0.750			
0.3718	23792.16	3.8670	3.8668	1.1734	7.03	1.06	0.750			
0.3753	24016.26	3.8640	3.8640	1.1904	7.02	1.05	0.750			
0.3788	24245.67	3.8610	3.8611	1.2140	7.00	1.03	0.750			
0.3826	24483.25	3.8580	3.8580	1.2270	6.99	1.02	0.750			
0.3862	24719.79	3.8550	3.8550	1.2476	6.97	1.00	0.750			
0.3900	24961.05	3.8520	3.8521	1.2659	6.96	0.99	0.750			
0.3938	25204.38	3.8490	3.8490	1.2951	6.94	0.97	0.750			
0.3977	25454.94	3.8460	3.8460	1.3302	6.92	0.95	0.750			
0.4017	25711.63	3.8430	3.8430	1.3614	6.91	0.94	0.750			
0.4059	25980.44	3.8400	3.8400	1.3774	6.88	0.91	0.750	0.407	0.895	
0.4102	26250.82	3.8370	3.8370	1.4099	6.86	0.89	0.750			
0.4144	26520.45	3.8340	3.8341	1.4290	6.84	0.87	0.750			
0.4188	26801.02	3.8310	3.8310	1.4408	6.82	0.85	0.750			
0.4231	27077.24	3.8280	3.8280	1.4547	6.80	0.83	0.750			
0.4274	27353.60	3.8250	3.8251	1.4857	6.78	0.81	0.750			
0.4320	27645.38	3.8220	3.8222	1.5008	6.76	0.79	0.750			
0.4365	27936.61	3.8190	3.8190	1.5439	6.74	0.77	0.750			
0.4411	28230.76	3.8160	3.8162	1.5668	6.73	0.76	0.750			
0.4459	28536.31	3.8130	3.8128	1.5950	6.71	0.74	0.750			
0.4508	28850.34	3.8100	3.8102	1.6121	6.69	0.72	0.750			
0.4556	29158.27	3.8070	3.8071	1.6515	6.67	0.70	0.750			
0.4607	29486.83	3.8040	3.8039	1.6776	6.64	0.67	0.750			
0.4657	29804.78	3.8010	3.8006	1.6912	6.62	0.65	0.750			
0.4709	30134.82	3.7980	3.7979	1.7277	6.59	0.62	0.750			
0.4761	30469.72	3.7950	3.7950	1.7758	6.57	0.60	0.750			
0.4815	30818.05	3.7920	3.7918	1.8160	6.54	0.57	0.750			
0.4870	31169.48	3.7890	3.7889	1.8362	6.52	0.55	0.750			
0.4925	31522.34	3.7860	3.7859	1.8398	6.49	0.52	0.750			
0.4981	31881.17	3.7830	3.7830	1.8703	6.46	0.49	0.750			
0.5038	32244.12	3.7800	3.7799	1.8611	6.44	0.47	0.750			
0.5094	32598.40	3.7770	3.7769	1.8752	6.42	0.45	0.750			
0.5150	32956.82	3.7740	3.7742	1.8719	6.40	0.43	0.750			
0.5204	33303.61	3.7710	3.7709	1.8923	6.37	0.40	0.750			
0.5263	33681.26	3.7680	3.7680	1.9306	6.35	0.38	0.750			
0.5321	34051.51	3.7650	3.7650	1.9653	6.32	0.35	0.750			
0.5381	34441.02	3.7620	3.7621	1.9868	6.29	0.32	0.750			
0.5442	34827.66	3.7590	3.7589	2.0044	6.26	0.29	0.750			
0.5502	35209.95	3.7560	3.7562	1.8827	6.23	0.26	0.750			
0.5557	35566.35	3.7530	3.7531	1.8860	6.21	0.24	0.750			
0.5611	35908.06	3.7500	3.7494	1.8583	6.18	0.21	0.750			
0.5666	36261.22	3.7470	3.7474	1.9967	6.17	0.20	0.750			
0.5727	36652.95	3.7440	3.7441	2.1307	6.15	0.18	0.750			
0.5794	37082.69	3.7410	3.7412	2.2050	6.12	0.15	0.750			
0.5863	37522.26	3.7380	3.7381	2.2763	6.11	0.14	0.750			
0.5931	37961.41	3.7350	3.7350	2.3121	6.10	0.13	0.750			
0.6003	38421.67	3.7320	3.7319	2.3334	6.08	0.11	0.750			
0.6073	38868.30	3.7290	3.7290	2.3553	6.06	0.09	0.750			
0.6144	39322.63	3.7260	3.7259	2.3717	6.04	0.07	0.750			
0.6217	39787.10	3.7230	3.7230	2.3744	6.03	0.06	0.750			
0.6289	40252.07	3.7200	3.7199	2.3633	6.02	0.05	0.750			
0.6360	40705.90	3.7170	3.7169	2.1897	6.01	0.04	0.750			
0.6424	41110.93	3.7140	3.7141	2.0275	6.00	0.03	0.750			
0.6479	41468.01	3.7110	3.7111	1.7801	5.99	0.02	0.750			
0.6529	41786.86	3.7080	3.7081	1.5679	5.98	0.01	0.750			
0.6574	42075.05	3.7050	3.7051	1.4341	5.97	0.00	0.750			
0.6616	42341.16	3.7020	3.7020	1.3104	5.97	0.00	0.750			
0.6652	42570.43	3.6990	3.6989	1.1903	5.97	0.00	0.750			
0.6684	42777.94	3.6960	3.6961	1.0911	5.97	0.00	0.750			
0.6715	42978.51	3.6930	3.6929	1.0355	5.97	-0.00	0.750			
0.6745	43165.09	3.6900	3.6900	0.9753	5.97	-0.00	0.750			
0.6773	43347.22	3.6870	3.6869	0.9418	5.96	-0.01	0.750			
0.6800	43522.99	3.6840	3.6840	0.9072	5.96	-0.01	0.750			
0.6827	43694.68	3.6810	3.6810	0.8820	5.95	-0.02	0.750			
0.6853	43861.75	3.6780	3.6780	0.8528	5.95	-0.02	0.750			
0.6879	44024.19	3.6750	3.6750	0.8187	5.96	-0.01	0.750			
0.6903	44178.62	3.6720	3.6720	0.7906	5.96	-0.01	0.750			
0.6926	44327.36	3.6690	3.6690	0.7621	5.96	-0.01	0.750			
0.6949	44471.12	3.6660	3.6661	0.7283	5.97	-0.00	0.750			
0.6970	44607.50	3.6630	3.6629	0.6965	5.97	0.00	0.750			
0.6990	44737.84	3.6600	3.6600	0.6602	5.97	0.00	0.750			
0.7010	44862.41	3.6570	3.6571	0.6301	5.97	0.00	0.750			
0.7028	44980.04	3.6540	3.6539	0.5962	5.97	0.00	0.750			
0.7045	45090.64	3.6510	3.6511	0.5624	5.97	0.00	0.750			
0.7062	45194.86	3.6480	3.6479	0.5320	5.97	0.00	0.750			
0.7077	45294.71	3.6450	3.6450	0.5063	5.97	0.00	0.750			
0.7092	45389.31	3.6420	3.6419	0.4752	5.97	0.00	0.750			
0.7106	45478.57	3.6390	3.6391	0.4458	5.97	0.00	0.750			
0.7119	45562.19	3.6360	3.6359	0.4138	5.97	0.00	0.750			
0.7131	45639.32	3.6330	3.6330	0.3797	5.97	0.00	0.750			
0.7142	45708.70	3.6300	3.6300	0.3428	5.97	0.00	0.750			
0.7152	45771.05	3.6270	3.6271	0.3069	5.97	0.00	0.750			
0.7161	45828.16	3.6240	3.6240	0.2677	5.97	0.00	0.750			
0.7168	45876.28	3.6210	3.6209	0.2292	5.97	0.00	0.750			
0.7174	45916.79	3.6180	3.6179	0.1890	5.97	0.00	0.750			
0.7179	45948.77	3.6150	3.6153	0.1468	5.97	0.00	0.750			
0.7184	45974.68	3.6120	3.6124	0.1062	5.97	0.00	0.750			
0.7186	45993.42	3.6090	3.6088	0.0605	5.97	0.00	0.750			
0.7187	45998.01	3.6030	3.6061	-0.0366	5.97	0.00	0.750			
0.7188	46000.38	3.6060	3.6000	0.0120	5.97	0.00	0.750			
