Ah_balance (normalized)	Ah_balance (mAh)	Voltage - fit (V)	Voltage -  interpolate (V)	dQ/dV (1/V)	Temperature (°C)	Temperature - diff (°C)	Current (C)	R_DC 0ms (mOhm)	R_DC 50ms (mOhm)	R_DC 50 ms PEC (mOhm)
0.0942	6031.92	4.0030	4.0024	-0.0733	5.98	0.01	-0.750			
0.0945	6049.64	4.0000	3.9997	-0.1043	5.98	0.01	-0.750			
0.0949	6072.31	3.9970	3.9969	-0.1319	5.98	0.01	-0.750			
0.0953	6100.73	3.9940	3.9940	-0.1574	5.98	0.01	-0.750			
0.0958	6133.53	3.9910	3.9911	-0.1826	5.98	0.01	-0.750			
0.0964	6172.01	3.9880	3.9880	-0.2084	5.98	0.01	-0.750			
0.0971	6214.51	3.9850	3.9850	-0.2296	5.98	0.01	-0.750			
0.0978	6260.37	3.9820	3.9820	-0.2529	5.98	0.01	-0.750			
0.0986	6311.21	3.9790	3.9791	-0.2743	5.98	0.01	-0.750			
0.0995	6365.51	3.9760	3.9760	-0.2984	5.98	0.01	-0.750			
0.1004	6425.69	3.9730	3.9730	-0.3202	5.97	0.00	-0.750			
0.1014	6488.92	3.9700	3.9700	-0.3430	5.97	0.00	-0.750			
0.1025	6556.94	3.9670	3.9670	-0.3671	5.97	0.00	-0.750			
0.1036	6630.34	3.9640	3.9641	-0.3894	5.97	-0.00	-0.750			
0.1048	6706.75	3.9610	3.9609	-0.4110	5.97	-0.00	-0.750			
0.1061	6788.25	3.9580	3.9580	-0.4343	5.97	-0.00	-0.750			
0.1074	6872.76	3.9550	3.9551	-0.4546	5.96	-0.01	-0.750			
0.1088	6963.13	3.9520	3.9520	-0.4778	5.96	-0.01	-0.750			
0.1103	7057.20	3.9490	3.9490	-0.4969	5.96	-0.01	-0.750			
0.1118	7155.23	3.9460	3.9460	-0.5156	5.96	-0.01	-0.750			
0.1134	7257.39	3.9430	3.9431	-0.5329	5.95	-0.02	-0.750			
0.1150	7360.47	3.9400	3.9400	-0.5474	5.95	-0.02	-0.750			
0.1167	7467.20	3.9370	3.9370	-0.5614	5.95	-0.02	-0.750			
0.1184	7576.18	3.9340	3.9340	-0.5763	5.95	-0.02	-0.750			
0.1201	7687.21	3.9310	3.9310	-0.5923	5.95	-0.02	-0.750			
0.1219	7803.29	3.9280	3.9280	-0.6042	5.95	-0.02	-0.750			
0.1238	7921.91	3.9250	3.9250	-0.6190	5.95	-0.02	-0.750			
0.1257	8042.08	3.9220	3.9220	-0.6296	5.95	-0.02	-0.750			
0.1276	8164.15	3.9190	3.9188	-0.6369	5.95	-0.02	-0.750			
0.1295	8287.79	3.9160	3.9159	-0.6431	5.95	-0.02	-0.750			
0.1314	8411.25	3.9130	3.9130	-0.6490	5.95	-0.02	-0.750			
0.1334	8535.68	3.9100	3.9101	-0.6568	5.95	-0.02	-0.750			
0.1354	8662.50	3.9070	3.9070	-0.6623	5.95	-0.02	-0.750			
0.1374	8791.38	3.9040	3.9040	-0.6703	5.95	-0.02	-0.750			
0.1394	8921.40	3.9010	3.9010	-0.6760	5.95	-0.02	-0.750			
0.1414	9052.72	3.8980	3.8980	-0.6832	5.95	-0.02	-0.750			
0.1435	9184.75	3.8950	3.8950	-0.6856	5.95	-0.02	-0.750			
0.1455	9314.71	3.8920	3.8920	-0.6901	5.96	-0.01	-0.750			
0.1476	9448.42	3.8890	3.8889	-0.6918	5.96	-0.01	-0.750			
0.1497	9582.01	3.8860	3.8860	-0.6960	5.96	-0.01	-0.750			
0.1518	9715.95	3.8830	3.8829	-0.6993	5.97	-0.00	-0.750			
0.1539	9850.50	3.8800	3.8801	-0.7018	5.97	0.00	-0.750			
0.1560	9986.12	3.8770	3.8769	-0.7032	5.97	0.00	-0.750			
0.1581	10120.34	3.8740	3.8740	-0.7087	5.98	0.01	-0.750			
0.1603	10256.11	3.8710	3.8710	-0.7071	5.98	0.01	-0.750			
0.1624	10394.34	3.8680	3.8680	-0.7113	5.98	0.01	-0.750			
0.1646	10531.54	3.8650	3.8649	-0.7112	5.99	0.02	-0.750			
0.1667	10668.36	3.8620	3.8621	-0.7089	5.99	0.02	-0.750			
0.1688	10803.75	3.8590	3.8590	-0.7108	6.00	0.03	-0.750			
0.1709	10938.99	3.8560	3.8561	-0.7153	6.01	0.04	-0.750			
0.1730	11074.76	3.8530	3.8530	-0.7158	6.01	0.04	-0.750			
0.1752	11215.13	3.8500	3.8500	-0.7191	6.02	0.05	-0.750			
0.1774	11354.31	3.8470	3.8470	-0.7229	6.03	0.06	-0.750			
0.1796	11492.69	3.8440	3.8441	-0.7255	6.03	0.06	-0.750			
0.1818	11633.33	3.8410	3.8409	-0.7261	6.04	0.07	-0.750			
0.1839	11772.33	3.8380	3.8379	-0.7249	6.05	0.08	-0.750			
0.1861	11910.34	3.8350	3.8350	-0.7260	6.06	0.09	-0.750			
0.1883	12051.53	3.8320	3.8321	-0.7296	6.06	0.09	-0.750			
0.1905	12191.97	3.8290	3.8291	-0.7331	6.07	0.10	-0.750			
0.1927	12332.32	3.8260	3.8259	-0.7288	6.07	0.10	-0.750			
0.1949	12471.99	3.8230	3.8230	-0.7283	6.08	0.11	-0.750			
0.1971	12611.93	3.8200	3.8200	-0.7298	6.08	0.11	-0.750			
0.1993	12752.01	3.8170	3.8170	-0.7283	6.08	0.11	-0.750			
0.2014	12892.06	3.8140	3.8140	-0.7273	6.09	0.12	-0.750			
0.2036	13031.50	3.8110	3.8111	-0.7288	6.09	0.12	-0.750			
0.2058	13170.57	3.8080	3.8079	-0.7298	6.10	0.13	-0.750			
0.2080	13311.17	3.8050	3.8050	-0.7364	6.11	0.14	-0.750			
0.2102	13452.94	3.8020	3.8019	-0.7337	6.11	0.14	-0.750			
0.2124	13594.87	3.7990	3.7990	-0.7363	6.12	0.15	-0.750			
0.2146	13735.76	3.7960	3.7959	-0.7388	6.13	0.16	-0.750			
0.2168	13877.35	3.7930	3.7929	-0.7409	6.13	0.16	-0.750			
0.2191	14019.87	3.7900	3.7900	-0.7427	6.14	0.17	-0.750			
0.2213	14161.79	3.7870	3.7869	-0.7465	6.14	0.17	-0.750			
0.2235	14306.86	3.7840	3.7841	-0.7428	6.14	0.17	-0.750			
0.2258	14451.33	3.7810	3.7810	-0.7482	6.15	0.18	-0.750			
0.2280	14593.68	3.7780	3.7782	-0.7509	6.15	0.18	-0.750			
0.2303	14737.14	3.7750	3.7749	-0.7548	6.16	0.19	-0.750			
0.2325	14880.22	3.7720	3.7719	-0.7590	6.17	0.20	-0.750			
0.2348	15027.14	3.7690	3.7690	-0.7621	6.18	0.21	-0.750			
0.2371	15176.67	3.7660	3.7660	-0.7675	6.19	0.22	-0.750			
0.2394	15324.23	3.7630	3.7630	-0.7718	6.20	0.23	-0.750			
0.2417	15471.37	3.7600	3.7601	-0.7676	6.21	0.24	-0.750			
0.2440	15617.13	3.7570	3.7570	-0.7723	6.22	0.25	-0.750			
0.2463	15766.14	3.7540	3.7539	-0.7689	6.22	0.25	-0.750			
0.2487	15914.13	3.7510	3.7511	-0.7755	6.22	0.25	-0.750			
0.2510	16063.59	3.7480	3.7480	-0.7823	6.23	0.26	-0.750			
0.2534	16214.81	3.7450	3.7452	-0.7893	6.23	0.26	-0.750			
0.2557	16366.43	3.7420	3.7420	-0.7897	6.24	0.27	-0.750			
0.2581	16518.55	3.7390	3.7390	-0.7995	6.25	0.28	-0.750			
0.2605	16672.43	3.7360	3.7361	-0.8034	6.25	0.28	-0.750			
0.2630	16829.24	3.7330	3.7329	-0.8118	6.26	0.29	-0.750			
0.2654	16983.52	3.7300	3.7301	-0.8097	6.27	0.30	-0.750			
0.2679	17143.72	3.7270	3.7269	-0.7887	6.27	0.30	-0.750			
0.2702	17293.09	3.7240	3.7241	-0.7812	6.28	0.31	-0.750			
0.2725	17439.53	3.7210	3.7212	-0.7839	6.28	0.31	-0.750			
0.2748	17586.21	3.7180	3.7176	-0.7872	6.28	0.31	-0.750			
0.2771	17735.04	3.7150	3.7148	-0.7986	6.29	0.32	-0.750			
0.2795	17889.01	3.7120	3.7121	-0.8154	6.29	0.32	-0.750			
0.2820	18048.88	3.7090	3.7091	-0.8429	6.30	0.33	-0.750			
0.2847	18218.09	3.7060	3.7060	-0.8655	6.30	0.33	-0.750			
0.2873	18384.72	3.7030	3.7029	-0.8649	6.30	0.33	-0.750			
0.2899	18552.97	3.7000	3.7000	-0.8705	6.31	0.34	-0.750			
0.2925	18720.31	3.6970	3.6971	-0.8803	6.31	0.34	-0.750			
0.2952	18889.84	3.6940	3.6939	-0.8856	6.32	0.35	-0.750			
0.2978	19058.72	3.6910	3.6910	-0.8922	6.32	0.35	-0.750			
0.3004	19228.73	3.6880	3.6880	-0.8969	6.33	0.36	-0.750			
0.3032	19405.49	3.6850	3.6854	-0.9100	6.33	0.36	-0.750			
0.3060	19581.03	3.6820	3.6820	-0.9220	6.33	0.36	-0.750			
0.3087	19759.45	3.6790	3.6790	-0.9280	6.34	0.37	-0.750			
0.3115	19938.19	3.6760	3.6760	-0.9267	6.34	0.37	-0.750			
0.3143	20115.87	3.6730	3.6729	-0.9415	6.35	0.38	-0.750			
0.3172	20297.67	3.6700	3.6700	-0.9463	6.35	0.38	-0.750			
0.3200	20480.65	3.6670	3.6669	-0.9569	6.35	0.38	-0.750			
0.3229	20664.81	3.6640	3.6642	-0.9611	6.35	0.38	-0.750			
0.3258	20848.47	3.6610	3.6610	-0.9716	6.35	0.38	-0.750			
0.3287	21037.22	3.6580	3.6581	-0.9834	6.35	0.38	-0.750			
0.3317	21227.27	3.6550	3.6549	-0.9978	6.36	0.39	-0.750			
0.3347	21419.31	3.6520	3.6520	-0.9996	6.36	0.39	-0.750			
0.3377	21615.01	3.6490	3.6489	-1.0121	6.37	0.40	-0.750			
0.3408	21810.22	3.6460	3.6463	-1.0239	6.37	0.40	-0.750			
0.3439	22007.50	3.6430	3.6430	-1.0267	6.38	0.41	-0.750			
0.3469	22202.07	3.6400	3.6399	-1.0298	6.38	0.41	-0.750			
0.3500	22400.59	3.6370	3.6369	-1.0425	6.39	0.42	-0.750			
0.3531	22600.43	3.6340	3.6343	-1.0602	6.39	0.42	-0.750			
0.3563	22806.18	3.6310	3.6310	-1.0705	6.40	0.43	-0.750			
0.3596	23014.03	3.6280	3.6280	-1.0767	6.41	0.44	-0.750			
0.3629	23222.83	3.6250	3.6250	-1.0806	6.42	0.45	-0.750			
0.3661	23429.24	3.6220	3.6221	-1.0969	6.43	0.46	-0.750			
0.3694	23640.72	3.6190	3.6189	-1.0982	6.44	0.47	-0.750			
0.3727	23851.23	3.6160	3.6159	-1.1007	6.45	0.48	-0.750			
0.3760	24061.77	3.6130	3.6129	-1.1155	6.45	0.48	-0.750			
0.3794	24278.81	3.6100	3.6100	-1.1300	6.46	0.49	-0.750			
0.3828	24497.00	3.6070	3.6069	-1.1403	6.46	0.49	-0.750			
0.3862	24717.07	3.6040	3.6040	-1.1521	6.47	0.50	-0.750			
0.3896	24936.61	3.6010	3.6011	-1.1578	6.47	0.50	-0.750			
0.3932	25165.79	3.5980	3.5979	-1.1788	6.48	0.51	-0.750			
0.3968	25392.62	3.5950	3.5950	-1.1833	6.50	0.53	-0.750			
0.4003	25619.10	3.5920	3.5920	-1.1875	6.52	0.55	-0.750			
0.4039	25849.21	3.5890	3.5893	-1.2001	6.53	0.56	-0.750	0.485	1.074	
0.4075	26079.97	3.5860	3.5859	-1.2065	6.54	0.57	-0.750			
0.4111	26311.45	3.5830	3.5830	-1.2126	6.54	0.57	-0.750			
0.4147	26542.72	3.5800	3.5801	-1.2247	6.55	0.58	-0.750			
0.4184	26780.77	3.5770	3.5769	-1.2457	6.55	0.58	-0.750			
0.4222	27021.21	3.5740	3.5739	-1.2577	6.56	0.59	-0.750			
0.4260	27260.91	3.5710	3.5710	-1.2760	6.57	0.60	-0.750			
0.4298	27509.08	3.5680	3.5681	-1.2894	6.58	0.61	-0.750			
0.4338	27761.04	3.5650	3.5650	-1.3081	6.59	0.62	-0.750			
0.4377	28014.49	3.5620	3.5619	-1.3201	6.60	0.63	-0.750			
0.4417	28268.66	3.5590	3.5590	-1.3342	6.61	0.64	-0.750			
0.4457	28527.88	3.5560	3.5560	-1.3406	6.62	0.65	-0.750			
0.4498	28787.04	3.5530	3.5529	-1.3513	6.62	0.65	-0.750			
0.4538	29044.81	3.5500	3.5502	-1.3654	6.63	0.66	-0.750			
0.4580	29312.37	3.5470	3.5469	-1.3811	6.65	0.68	-0.750			
0.4621	29576.01	3.5440	3.5439	-1.3909	6.66	0.69	-0.750			
0.4663	29845.15	3.5410	3.5412	-1.4001	6.67	0.70	-0.750			
0.4706	30117.51	3.5380	3.5379	-1.4229	6.68	0.71	-0.750			
0.4749	30392.63	3.5350	3.5349	-1.4237	6.69	0.72	-0.750			
0.4792	30666.07	3.5320	3.5320	-1.4349	6.70	0.73	-0.750			
0.4835	30942.81	3.5290	3.5292	-1.4599	6.70	0.73	-0.750			
0.4879	31224.22	3.5260	3.5258	-1.4709	6.71	0.74	-0.750			
0.4923	31508.51	3.5230	3.5230	-1.4750	6.72	0.75	-0.750			
0.4968	31795.32	3.5200	3.5199	-1.4859	6.73	0.76	-0.750			
0.5013	32082.12	3.5170	3.5170	-1.4942	6.74	0.77	-0.750			
0.5057	32366.11	3.5140	3.5140	-1.4894	6.75	0.78	-0.750			
0.5103	32656.80	3.5110	3.5109	-1.4923	6.76	0.79	-0.750			
0.5147	32938.76	3.5080	3.5080	-1.4959	6.77	0.80	-0.750			
0.5192	33228.90	3.5050	3.5049	-1.5046	6.78	0.81	-0.750			
0.5238	33521.57	3.5020	3.5018	-1.5060	6.80	0.83	-0.750			
0.5283	33808.83	3.4990	3.4993	-1.5175	6.81	0.84	-0.750			
0.5328	34100.80	3.4960	3.4960	-1.5192	6.82	0.85	-0.750			
0.5374	34394.88	3.4930	3.4929	-1.5263	6.82	0.85	-0.750			
0.5420	34690.33	3.4900	3.4900	-1.5160	6.83	0.86	-0.750			
0.5466	34983.03	3.4870	3.4871	-1.5111	6.84	0.87	-0.750			
0.5511	35271.23	3.4840	3.4839	-1.5157	6.85	0.88	-0.750			
0.5556	35556.41	3.4810	3.4810	-1.5136	6.86	0.89	-0.750			
0.5602	35852.23	3.4780	3.4778	-1.5246	6.87	0.90	-0.750			
0.5648	36146.67	3.4750	3.4750	-1.5167	6.89	0.92	-0.750			
0.5693	36436.87	3.4720	3.4720	-1.5075	6.90	0.93	-0.750			
0.5739	36730.68	3.4690	3.4690	-1.5008	6.91	0.94	-0.750			
0.5784	37017.81	3.4660	3.4662	-1.4874	6.92	0.95	-0.750			
0.5828	37298.05	3.4630	3.4629	-1.4698	6.93	0.96	-0.750			
0.5871	37577.06	3.4600	3.4601	-1.4590	6.94	0.97	-0.750			
0.5916	37861.28	3.4570	3.4570	-1.4588	6.95	0.98	-0.750			
0.5960	38144.73	3.4540	3.4539	-1.4502	6.97	1.00	-0.750			
0.6003	38420.57	3.4510	3.4510	-1.4245	6.98	1.01	-0.750			
0.6046	38693.96	3.4480	3.4480	-1.4019	6.99	1.02	-0.750			
0.6087	38958.88	3.4450	3.4450	-1.3830	7.01	1.04	-0.750			
0.6128	39221.16	3.4420	3.4419	-1.3627	7.02	1.05	-0.750			
0.6168	39476.87	3.4390	3.4390	-1.3462	7.03	1.06	-0.750			
0.6209	39739.84	3.4360	3.4360	-1.3346	7.04	1.07	-0.750			
0.6249	39996.75	3.4330	3.4330	-1.3150	7.04	1.07	-0.750			
0.6289	40246.58	3.4300	3.4302	-1.2956	7.05	1.08	-0.750			
0.6327	40494.21	3.4270	3.4269	-1.2691	7.06	1.09	-0.750			
0.6365	40733.84	3.4240	3.4239	-1.2414	7.08	1.11	-0.750			
0.6401	40967.71	3.4210	3.4209	-1.2179	7.09	1.12	-0.750			
0.6438	41203.36	3.4180	3.4180	-1.2021	7.10	1.13	-0.750			
0.6474	41431.47	3.4150	3.4150	-1.1756	7.11	1.14	-0.750			
0.6509	41654.97	3.4120	3.4119	-1.1504	7.12	1.15	-0.750			
0.6542	41871.57	3.4090	3.4091	-1.1282	7.13	1.16	-0.750			
0.6576	42089.04	3.4060	3.4059	-1.0999	7.14	1.17	-0.750			
0.6609	42296.03	3.4030	3.4030	-1.0718	7.15	1.18	-0.750			
0.6640	42497.57	3.4000	3.4000	-1.0420	7.16	1.19	-0.750			
0.6672	42698.30	3.3970	3.3969	-1.0225	7.17	1.20	-0.750			
0.6702	42890.17	3.3940	3.3939	-0.9962	7.18	1.21	-0.750			
0.6731	43079.46	3.3910	3.3910	-0.9677	7.19	1.22	-0.750			
0.6760	43262.19	3.3880	3.3880	-0.9417	7.20	1.23	-0.750			
0.6788	43442.72	3.3850	3.3851	-0.9185	7.21	1.24	-0.750			
0.6815	43613.95	3.3820	3.3819	-0.8925	7.23	1.26	-0.750			
0.6841	43783.86	3.3790	3.3790	-0.8690	7.24	1.27	-0.750			
0.6867	43946.89	3.3760	3.3758	-0.8483	7.26	1.29	-0.750			
0.6892	44108.51	3.3730	3.3730	-0.8296	7.27	1.30	-0.750			
0.6917	44266.49	3.3700	3.3701	-0.8107	7.28	1.31	-0.750			
0.6940	44419.18	3.3670	3.3669	-0.7930	7.29	1.32	-0.750			
0.6964	44570.35	3.3640	3.3640	-0.7752	7.30	1.33	-0.750			
0.6987	44715.74	3.3610	3.3610	-0.7513	7.31	1.34	-0.750			
0.7009	44859.05	3.3580	3.3580	-0.7362	7.32	1.35	-0.750			
0.7031	44998.78	3.3550	3.3552	-0.7149	7.33	1.36	-0.750			
0.7052	45134.76	3.3520	3.3519	-0.6976	7.34	1.37	-0.750			
0.7073	45265.94	3.3490	3.3490	-0.6793	7.35	1.38	-0.750			
0.7093	45394.17	3.3460	3.3460	-0.6628	7.35	1.38	-0.750			
0.7113	45520.03	3.3430	3.3430	-0.6488	7.36	1.39	-0.750			
0.7132	45642.89	3.3400	3.3400	-0.6247	7.37	1.40	-0.750			
