Ah_balance (normalized)	Ah_balance (mAh)	Voltage - fit (V)	Voltage -  interpolate (V)	dQ/dV (1/V)	Temperature (°C)	Temperature - diff (°C)	Current (C)	R_DC 0ms (mOhm)	R_DC 50ms (mOhm)	R_DC 50 ms PEC (mOhm)
0.0958	6133.85	4.0040	4.0036	-0.0493	5.97	0.00	-0.750			
0.0961	6147.23	4.0010	4.0007	-0.0849	5.97	0.00	-0.750			
0.0964	6167.43	3.9980	3.9978	-0.1157	5.97	0.00	-0.750			
0.0968	6192.32	3.9950	3.9949	-0.1436	5.97	0.00	-0.750			
0.0972	6223.08	3.9920	3.9920	-0.1683	5.97	0.00	-0.750			
0.0978	6257.82	3.9890	3.9892	-0.1945	5.97	0.00	-0.750			
0.0984	6298.73	3.9860	3.9860	-0.2201	5.97	0.00	-0.750			
0.0991	6343.38	3.9830	3.9830	-0.2433	5.97	0.00	-0.750			
0.0999	6392.12	3.9800	3.9798	-0.2670	5.97	0.00	-0.750			
0.1007	6445.71	3.9770	3.9771	-0.2896	5.97	0.00	-0.750			
0.1016	6503.41	3.9740	3.9741	-0.3135	5.97	0.00	-0.750			
0.1026	6565.89	3.9710	3.9710	-0.3367	5.97	0.00	-0.750			
0.1036	6633.16	3.9680	3.9681	-0.3580	5.97	0.00	-0.750			
0.1047	6703.54	3.9650	3.9649	-0.3819	5.97	0.00	-0.750			
0.1059	6778.65	3.9620	3.9621	-0.4078	5.97	0.00	-0.750			
0.1072	6859.49	3.9590	3.9590	-0.4307	5.97	0.00	-0.750			
0.1085	6945.07	3.9560	3.9559	-0.4539	5.97	0.00	-0.750			
0.1099	7034.74	3.9530	3.9531	-0.4748	5.97	0.00	-0.750			
0.1114	7128.31	3.9500	3.9501	-0.4974	5.97	0.00	-0.750			
0.1129	7226.24	3.9470	3.9470	-0.5169	5.97	0.00	-0.750			
0.1145	7327.00	3.9440	3.9440	-0.5337	5.97	0.00	-0.750			
0.1161	7431.43	3.9410	3.9410	-0.5522	5.97	0.00	-0.750			
0.1178	7540.38	3.9380	3.9380	-0.5703	5.97	0.00	-0.750			
0.1195	7651.15	3.9350	3.9350	-0.5863	5.97	0.00	-0.750			
0.1213	7765.62	3.9320	3.9320	-0.6015	5.97	0.00	-0.750			
0.1232	7882.81	3.9290	3.9290	-0.6129	5.97	0.00	-0.750			
0.1250	8001.98	3.9260	3.9260	-0.6240	5.97	0.00	-0.750			
0.1269	8123.02	3.9230	3.9230	-0.6350	5.97	0.00	-0.750			
0.1288	8246.07	3.9200	3.9201	-0.6430	5.97	0.00	-0.750			
0.1308	8370.67	3.9170	3.9169	-0.6533	5.97	0.00	-0.750			
0.1327	8495.68	3.9140	3.9141	-0.6631	5.98	0.01	-0.750			
0.1348	8624.87	3.9110	3.9110	-0.6718	5.98	0.01	-0.750			
0.1368	8755.23	3.9080	3.9080	-0.6797	5.98	0.01	-0.750			
0.1389	8886.43	3.9050	3.9049	-0.6854	5.99	0.02	-0.750			
0.1409	9018.51	3.9020	3.9025	-0.6907	5.99	0.02	-0.750			
0.1430	9152.42	3.8990	3.8989	-0.6940	5.99	0.02	-0.750			
0.1451	9285.19	3.8960	3.8961	-0.6986	6.00	0.03	-0.750			
0.1472	9419.71	3.8930	3.8930	-0.7041	6.00	0.03	-0.750			
0.1493	9556.12	3.8900	3.8900	-0.7081	6.00	0.03	-0.750			
0.1514	9692.01	3.8870	3.8869	-0.7107	6.01	0.04	-0.750			
0.1536	9828.97	3.8840	3.8842	-0.7136	6.01	0.04	-0.750			
0.1557	9966.06	3.8810	3.8810	-0.7177	6.02	0.05	-0.750			
0.1579	10103.83	3.8780	3.8780	-0.7242	6.02	0.05	-0.750			
0.1600	10242.76	3.8750	3.8751	-0.7261	6.03	0.06	-0.750			
0.1622	10383.15	3.8720	3.8719	-0.7283	6.03	0.06	-0.750			
0.1644	10523.27	3.8690	3.8689	-0.7318	6.04	0.07	-0.750			
0.1666	10663.75	3.8660	3.8661	-0.7328	6.04	0.07	-0.750			
0.1688	10804.76	3.8630	3.8631	-0.7348	6.05	0.08	-0.750			
0.1710	10946.14	3.8600	3.8599	-0.7371	6.05	0.08	-0.750			
0.1732	11087.46	3.8570	3.8571	-0.7353	6.06	0.09	-0.750			
0.1755	11231.40	3.8540	3.8540	-0.7373	6.06	0.09	-0.750			
0.1777	11373.24	3.8510	3.8510	-0.7395	6.07	0.10	-0.750			
0.1799	11513.46	3.8480	3.8480	-0.7397	6.07	0.10	-0.750			
0.1821	11654.13	3.8450	3.8449	-0.7391	6.08	0.11	-0.750			
0.1843	11795.99	3.8420	3.8420	-0.7440	6.09	0.12	-0.750			
0.1866	11939.66	3.8390	3.8390	-0.7453	6.10	0.13	-0.750			
0.1888	12086.14	3.8360	3.8360	-0.7504	6.10	0.13	-0.750			
0.1911	12230.76	3.8330	3.8331	-0.7476	6.11	0.14	-0.750			
0.1933	12372.95	3.8300	3.8300	-0.7428	6.12	0.15	-0.750			
0.1955	12514.82	3.8270	3.8270	-0.7423	6.12	0.15	-0.750			
0.1977	12655.40	3.8240	3.8240	-0.7430	6.13	0.16	-0.750			
0.2000	12798.01	3.8210	3.8210	-0.7486	6.14	0.17	-0.750			
0.2022	12942.14	3.8180	3.8180	-0.7515	6.15	0.18	-0.750			
0.2045	13088.49	3.8150	3.8150	-0.7557	6.15	0.18	-0.750			
0.2068	13233.61	3.8120	3.8120	-0.7563	6.16	0.19	-0.750			
0.2090	13379.18	3.8090	3.8091	-0.7541	6.17	0.20	-0.750			
0.2113	13523.49	3.8060	3.8060	-0.7537	6.18	0.21	-0.750			
0.2136	13667.42	3.8030	3.8028	-0.7524	6.18	0.21	-0.750			
0.2158	13811.32	3.8000	3.8004	-0.7516	6.19	0.22	-0.750			
0.2181	13955.88	3.7970	3.7970	-0.7546	6.20	0.23	-0.750			
0.2203	14100.70	3.7940	3.7940	-0.7632	6.21	0.24	-0.750			
0.2226	14248.78	3.7910	3.7910	-0.7622	6.22	0.25	-0.750			
0.2249	14395.91	3.7880	3.7879	-0.7618	6.23	0.26	-0.750			
0.2272	14541.91	3.7850	3.7850	-0.7568	6.24	0.27	-0.750			
0.2295	14686.43	3.7820	3.7819	-0.7576	6.24	0.27	-0.750			
0.2317	14830.61	3.7790	3.7790	-0.7598	6.25	0.28	-0.750			
0.2340	14974.66	3.7760	3.7759	-0.7595	6.26	0.29	-0.750			
0.2363	15120.67	3.7730	3.7730	-0.7612	6.27	0.30	-0.750			
0.2386	15269.81	3.7700	3.7700	-0.7697	6.28	0.31	-0.750			
0.2409	15418.74	3.7670	3.7673	-0.7738	6.29	0.32	-0.750			
0.2432	15567.58	3.7640	3.7639	-0.7750	6.30	0.33	-0.750			
0.2455	15714.28	3.7610	3.7610	-0.7772	6.30	0.33	-0.750			
0.2479	15865.46	3.7580	3.7580	-0.7782	6.31	0.34	-0.750			
0.2502	16014.67	3.7550	3.7549	-0.7846	6.32	0.35	-0.750			
0.2526	16166.07	3.7520	3.7520	-0.7873	6.33	0.36	-0.750			
0.2550	16317.60	3.7490	3.7490	-0.7891	6.33	0.36	-0.750			
0.2573	16467.24	3.7460	3.7460	-0.7999	6.34	0.37	-0.750			
0.2597	16622.42	3.7430	3.7430	-0.8015	6.34	0.37	-0.750			
0.2621	16777.52	3.7400	3.7399	-0.8019	6.34	0.37	-0.750			
0.2646	16933.87	3.7370	3.7369	-0.8094	6.35	0.38	-0.750			
0.2670	17087.54	3.7340	3.7340	-0.8071	6.35	0.38	-0.750			
0.2694	17239.19	3.7310	3.7310	-0.8342	6.36	0.39	-0.750			
0.2719	17401.85	3.7280	3.7279	-0.8477	6.37	0.40	-0.750			
0.2745	17565.16	3.7250	3.7248	-0.8573	6.38	0.41	-0.750			
0.2771	17736.77	3.7220	3.7221	-0.8628	6.40	0.43	-0.750			
0.2798	17906.69	3.7190	3.7191	-0.8710	6.40	0.43	-0.750			
0.2824	18073.06	3.7160	3.7160	-0.8684	6.41	0.44	-0.750			
0.2850	18237.17	3.7130	3.7128	-0.8611	6.42	0.45	-0.750			
0.2875	18398.27	3.7100	3.7101	-0.8582	6.43	0.46	-0.750			
0.2901	18565.25	3.7070	3.7069	-0.8689	6.44	0.47	-0.750			
0.2927	18733.35	3.7040	3.7040	-0.8767	6.44	0.47	-0.750			
0.2954	18902.88	3.7010	3.7010	-0.8829	6.45	0.48	-0.750			
0.2980	19070.68	3.6980	3.6980	-0.8866	6.46	0.49	-0.750			
0.3006	19241.40	3.6950	3.6950	-0.8940	6.46	0.49	-0.750			
0.3034	19415.80	3.6920	3.6921	-0.9024	6.47	0.50	-0.750			
0.3061	19588.30	3.6890	3.6890	-0.9179	6.48	0.51	-0.750			
0.3089	19767.22	3.6860	3.6859	-0.9235	6.49	0.52	-0.750			
0.3116	19945.36	3.6830	3.6829	-0.9320	6.50	0.53	-0.750			
0.3145	20125.59	3.6800	3.6801	-0.9392	6.51	0.54	-0.750			
0.3173	20306.65	3.6770	3.6771	-0.9431	6.51	0.54	-0.750			
0.3201	20489.03	3.6740	3.6739	-0.9569	6.52	0.55	-0.750			
0.3230	20672.55	3.6710	3.6709	-0.9645	6.52	0.55	-0.750			
0.3259	20857.06	3.6680	3.6679	-0.9731	6.53	0.56	-0.750			
0.3289	21046.60	3.6650	3.6652	-0.9889	6.53	0.56	-0.750			
0.3318	21237.56	3.6620	3.6620	-1.0025	6.54	0.57	-0.750			
0.3349	21432.81	3.6590	3.6589	-1.0117	6.55	0.58	-0.750			
0.3379	21628.22	3.6560	3.6561	-1.0172	6.56	0.59	-0.750			
0.3410	21825.29	3.6530	3.6531	-1.0284	6.57	0.60	-0.750			
0.3441	22022.80	3.6500	3.6500	-1.0300	6.58	0.61	-0.750			
0.3472	22218.79	3.6470	3.6470	-1.0383	6.58	0.61	-0.750			
0.3503	22417.91	3.6440	3.6439	-1.0456	6.59	0.62	-0.750			
0.3534	22619.18	3.6410	3.6413	-1.0570	6.59	0.62	-0.750			
0.3566	22823.85	3.6380	3.6380	-1.0701	6.60	0.63	-0.750			
0.3599	23032.46	3.6350	3.6350	-1.0793	6.61	0.64	-0.750			
0.3631	23240.84	3.6320	3.6319	-1.0840	6.61	0.64	-0.750			
0.3664	23448.03	3.6290	3.6291	-1.0988	6.62	0.65	-0.750			
0.3697	23659.27	3.6260	3.6260	-1.1078	6.63	0.66	-0.750			
0.3730	23872.88	3.6230	3.6229	-1.1233	6.64	0.67	-0.750			
0.3764	24091.46	3.6200	3.6200	-1.1301	6.65	0.68	-0.750			
0.3799	24311.21	3.6170	3.6170	-1.1409	6.65	0.68	-0.750			
0.3833	24532.85	3.6140	3.6139	-1.1433	6.66	0.69	-0.750			
0.3867	24751.79	3.6110	3.6111	-1.1528	6.66	0.69	-0.750			
0.3902	24970.59	3.6080	3.6080	-1.1582	6.67	0.70	-0.750			
0.3937	25194.85	3.6050	3.6048	-1.1725	6.67	0.70	-0.750			
0.3972	25418.45	3.6020	3.6020	-1.1921	6.68	0.71	-0.750			
0.4008	25651.72	3.5990	3.5990	-1.2113	6.69	0.72	-0.750			
0.4045	25887.63	3.5960	3.5960	-1.2270	6.69	0.72	-0.750			
0.4083	26128.76	3.5930	3.5929	-1.2441	6.70	0.73	-0.750	0.450	1.068	
0.4120	26367.90	3.5900	3.5899	-1.2462	6.70	0.73	-0.750			
0.4157	26606.42	3.5870	3.5871	-1.2619	6.71	0.74	-0.750			
0.4196	26852.06	3.5840	3.5840	-1.2764	6.72	0.75	-0.750			
0.4233	27093.50	3.5810	3.5810	-1.2786	6.72	0.75	-0.750			
0.4273	27344.17	3.5780	3.5781	-1.3060	6.73	0.76	-0.750			
0.4312	27597.58	3.5750	3.5749	-1.3178	6.73	0.76	-0.750			
0.4352	27852.51	3.5720	3.5719	-1.3223	6.74	0.77	-0.750			
0.4392	28105.99	3.5690	3.5690	-1.3419	6.75	0.78	-0.750			
0.4432	28362.39	3.5660	3.5661	-1.3449	6.75	0.78	-0.750			
0.4473	28626.13	3.5630	3.5629	-1.3629	6.76	0.79	-0.750			
0.4514	28887.42	3.5600	3.5600	-1.3945	6.77	0.80	-0.750			
0.4556	29156.91	3.5570	3.5570	-1.4071	6.78	0.81	-0.750			
0.4599	29432.31	3.5540	3.5538	-1.4247	6.79	0.82	-0.750			
0.4642	29709.66	3.5510	3.5511	-1.4456	6.80	0.83	-0.750			
0.4685	29984.72	3.5480	3.5479	-1.4618	6.81	0.84	-0.750			
0.4730	30271.65	3.5450	3.5449	-1.4718	6.82	0.85	-0.750			
0.4774	30553.08	3.5420	3.5420	-1.4841	6.83	0.86	-0.750			
0.4819	30840.02	3.5390	3.5390	-1.4807	6.84	0.87	-0.750			
0.4864	31128.92	3.5360	3.5360	-1.5115	6.84	0.87	-0.750			
0.4909	31418.89	3.5330	3.5333	-1.5182	6.85	0.88	-0.750			
0.4955	31709.60	3.5300	3.5298	-1.5180	6.86	0.89	-0.750			
0.5000	32001.54	3.5270	3.5269	-1.5300	6.87	0.90	-0.750			
0.5047	32299.81	3.5240	3.5240	-1.5437	6.88	0.91	-0.750			
0.5093	32595.77	3.5210	3.5210	-1.5639	6.89	0.92	-0.750			
0.5141	32899.32	3.5180	3.5179	-1.5738	6.91	0.94	-0.750			
0.5187	33197.32	3.5150	3.5150	-1.5772	6.92	0.95	-0.750			
0.5235	33505.49	3.5120	3.5118	-1.5869	6.93	0.96	-0.750			
0.5283	33809.36	3.5090	3.5092	-1.5934	6.95	0.98	-0.750			
0.5331	34116.39	3.5060	3.5058	-1.5871	6.96	0.99	-0.750			
0.5378	34421.64	3.5030	3.5031	-1.6012	6.97	1.00	-0.750			
0.5426	34727.57	3.5000	3.4999	-1.5978	6.98	1.01	-0.750			
0.5475	35038.18	3.4970	3.4971	-1.5998	7.00	1.03	-0.750			
0.5523	35344.61	3.4940	3.4942	-1.5905	7.01	1.04	-0.750			
0.5570	35647.89	3.4910	3.4909	-1.5824	7.02	1.05	-0.750			
0.5617	35951.02	3.4880	3.4878	-1.5727	7.04	1.07	-0.750			
0.5664	36252.57	3.4850	3.4851	-1.5641	7.05	1.08	-0.750			
0.5711	36552.61	3.4820	3.4818	-1.5498	7.06	1.09	-0.750			
0.5757	36845.51	3.4790	3.4792	-1.5505	7.07	1.10	-0.750			
0.5804	37146.02	3.4760	3.4760	-1.5517	7.09	1.12	-0.750			
0.5852	37450.53	3.4730	3.4728	-1.5265	7.10	1.13	-0.750			
0.5898	37747.19	3.4700	3.4702	-1.4718	7.12	1.15	-0.750			
0.5942	38029.33	3.4670	3.4671	-1.4252	7.13	1.16	-0.750			
0.5983	38288.78	3.4640	3.4643	-1.4026	7.14	1.17	-0.750			
0.6022	38543.42	3.4610	3.4609	-1.3817	7.15	1.18	-0.750			
0.6062	38799.02	3.4580	3.4576	-1.3790	7.16	1.19	-0.750			
0.6104	39065.35	3.4550	3.4550	-1.3809	7.17	1.20	-0.750			
0.6147	39337.89	3.4520	3.4521	-1.4085	7.18	1.21	-0.750			
0.6191	39620.39	3.4490	3.4490	-1.4286	7.19	1.22	-0.750			
0.6234	39896.34	3.4460	3.4458	-1.4223	7.21	1.24	-0.750			
0.6276	40165.02	3.4430	3.4431	-1.4077	7.23	1.26	-0.750			
0.6318	40434.40	3.4400	3.4399	-1.3960	7.24	1.27	-0.750			
0.6361	40707.34	3.4370	3.4369	-1.3797	7.25	1.28	-0.750			
0.6402	40972.61	3.4340	3.4342	-1.3622	7.26	1.29	-0.750			
0.6442	41230.05	3.4310	3.4309	-1.3224	7.27	1.30	-0.750			
0.6482	41484.62	3.4280	3.4279	-1.2957	7.29	1.32	-0.750			
0.6520	41729.05	3.4250	3.4251	-1.2611	7.30	1.33	-0.750			
0.6557	41965.09	3.4220	3.4220	-1.2407	7.32	1.35	-0.750			
0.6594	42204.07	3.4190	3.4189	-1.2179	7.33	1.36	-0.750			
0.6631	42435.81	3.4160	3.4159	-1.1941	7.34	1.37	-0.750			
0.6666	42660.76	3.4130	3.4132	-1.1643	7.35	1.38	-0.750			
0.6701	42888.14	3.4100	3.4101	-1.1453	7.36	1.39	-0.750			
0.6735	43103.14	3.4070	3.4069	-1.1104	7.37	1.40	-0.750			
0.6767	43310.11	3.4040	3.4039	-1.0700	7.38	1.41	-0.750			
0.6799	43515.32	3.4010	3.4011	-1.0578	7.40	1.43	-0.750			
0.6830	43714.29	3.3980	3.3980	-1.0316	7.41	1.44	-0.750			
0.6861	43910.59	3.3950	3.3950	-1.0085	7.43	1.46	-0.750			
0.6891	44102.11	3.3920	3.3919	-0.9812	7.44	1.47	-0.750			
0.6920	44290.55	3.3890	3.3890	-0.9551	7.46	1.49	-0.750			
0.6949	44472.68	3.3860	3.3860	-0.9277	7.47	1.50	-0.750			
0.6976	44647.12	3.3830	3.3830	-0.9027	7.48	1.51	-0.750			
0.7002	44815.72	3.3800	3.3800	-0.8736	7.50	1.53	-0.750			
0.7029	44982.81	3.3770	3.3770	-0.8485	7.51	1.54	-0.750			
0.7053	45142.01	3.3740	3.3739	-0.8273	7.52	1.55	-0.750			
0.7078	45298.28	3.3710	3.3711	-0.8113	7.53	1.56	-0.750			
0.7102	45453.47	3.3680	3.3679	-0.7926	7.54	1.57	-0.750			
0.7125	45602.60	3.3650	3.3650	-0.7714	7.55	1.58	-0.750			
0.7148	45748.58	3.3620	3.3620	-0.7494	7.57	1.60	-0.750			
0.7171	45892.04	3.3590	3.3590	-0.7316	7.58	1.61	-0.750			
0.7193	46032.51	3.3560	3.3559	-0.7120	7.59	1.62	-0.750			
0.7213	46164.96	3.3530	3.3529	-0.6878	7.60	1.63	-0.750			
0.7233	46293.51	3.3500	3.3501	-0.6811	7.61	1.64	-0.750			
0.7253	46421.69	3.3470	3.3470	-0.6462	7.62	1.65	-0.750			
