Ah_balance (normalized)	Ah_balance (mAh)	Voltage - fit (V)	Voltage -  interpolate (V)	dQ/dV (1/V)	Temperature (°C)	Temperature - diff (°C)	Current (C)	R_DC 0ms (mOhm)	R_DC 50ms (mOhm)	R_DC 50 ms PEC (mOhm)
0.1786	11429.79	4.0820	4.0819	0.7378	7.45	1.48	0.750			
0.1809	11574.56	4.0790	4.0790	0.7654	7.44	1.47	0.750			
0.1832	11723.78	4.0760	4.0760	0.7786	7.43	1.46	0.750			
0.1855	11874.22	4.0730	4.0730	0.7867	7.43	1.46	0.750			
0.1879	12027.32	4.0700	4.0701	0.7875	7.42	1.45	0.750			
0.1903	12180.20	4.0670	4.0670	0.7926	7.41	1.44	0.750			
0.1927	12332.87	4.0640	4.0640	0.7979	7.40	1.43	0.750			
0.1951	12484.08	4.0610	4.0611	0.7977	7.40	1.43	0.750			
0.1975	12638.03	4.0580	4.0579	0.8031	7.39	1.42	0.750			
0.1999	12792.47	4.0550	4.0551	0.8070	7.38	1.41	0.750			
0.2023	12948.51	4.0520	4.0520	0.8047	7.37	1.40	0.750			
0.2047	13103.35	4.0490	4.0491	0.8078	7.36	1.39	0.750			
0.2071	13257.16	4.0460	4.0460	0.8101	7.36	1.39	0.750			
0.2096	13412.72	4.0430	4.0427	0.8119	7.35	1.38	0.750			
0.2120	13568.45	4.0400	4.0400	0.8142	7.35	1.38	0.750			
0.2145	13725.33	4.0370	4.0371	0.8144	7.34	1.37	0.750			
0.2169	13882.83	4.0340	4.0340	0.8236	7.34	1.37	0.750			
0.2194	14040.71	4.0310	4.0310	0.8243	7.33	1.36	0.750			
0.2219	14199.92	4.0280	4.0277	0.8289	7.33	1.36	0.750			
0.2244	14358.76	4.0250	4.0251	0.8314	7.32	1.35	0.750			
0.2269	14520.26	4.0220	4.0220	0.8324	7.31	1.34	0.750			
0.2294	14680.45	4.0190	4.0190	0.8365	7.31	1.34	0.750			
0.2319	14839.42	4.0160	4.0161	0.8346	7.30	1.33	0.750			
0.2344	14999.76	4.0130	4.0128	0.8387	7.29	1.32	0.750			
0.2369	15162.60	4.0100	4.0100	0.8423	7.28	1.31	0.750			
0.2394	15324.57	4.0070	4.0070	0.8466	7.27	1.30	0.750			
0.2420	15488.88	4.0040	4.0040	0.8501	7.27	1.30	0.750			
0.2446	15651.29	4.0010	4.0011	0.8528	7.26	1.29	0.750			
0.2471	15814.81	3.9980	3.9979	0.8554	7.25	1.28	0.750			
0.2497	15981.05	3.9950	3.9950	0.8577	7.25	1.28	0.750			
0.2523	16145.99	3.9920	3.9920	0.8611	7.24	1.27	0.750			
0.2549	16311.40	3.9890	3.9890	0.8650	7.24	1.27	0.750			
0.2575	16477.25	3.9860	3.9861	0.8704	7.23	1.26	0.750			
0.2601	16644.78	3.9830	3.9830	0.8749	7.23	1.26	0.750			
0.2627	16812.68	3.9800	3.9800	0.8777	7.22	1.25	0.750			
0.2654	16982.85	3.9770	3.9770	0.8813	7.21	1.24	0.750			
0.2680	17152.87	3.9740	3.9740	0.8840	7.20	1.23	0.750			
0.2707	17322.28	3.9710	3.9710	0.8858	7.19	1.22	0.750			
0.2733	17491.87	3.9680	3.9679	0.8900	7.19	1.22	0.750			
0.2760	17662.78	3.9650	3.9650	0.8866	7.18	1.21	0.750			
0.2786	17833.06	3.9620	3.9620	0.8949	7.17	1.20	0.750			
0.2813	18005.12	3.9590	3.9591	0.9033	7.16	1.19	0.750			
0.2841	18180.11	3.9560	3.9558	0.9072	7.15	1.18	0.750			
0.2868	18356.23	3.9530	3.9530	0.9060	7.14	1.17	0.750			
0.2895	18528.40	3.9500	3.9501	0.9165	7.13	1.16	0.750			
0.2923	18705.49	3.9470	3.9470	0.9228	7.12	1.15	0.750			
0.2951	18883.61	3.9440	3.9440	0.9337	7.12	1.15	0.750			
0.2978	19059.91	3.9410	3.9410	0.9383	7.11	1.14	0.750			
0.3007	19242.31	3.9380	3.9381	0.9437	7.10	1.13	0.750			
0.3035	19426.84	3.9350	3.9350	0.9523	7.09	1.12	0.750			
0.3064	19609.12	3.9320	3.9321	0.9593	7.08	1.11	0.750			
0.3093	19792.01	3.9290	3.9289	0.9635	7.07	1.10	0.750			
0.3122	19980.01	3.9260	3.9259	0.9701	7.06	1.09	0.750			
0.3151	20166.07	3.9230	3.9230	0.9722	7.05	1.08	0.750			
0.3180	20353.19	3.9200	3.9201	0.9802	7.04	1.07	0.750			
0.3210	20541.92	3.9170	3.9170	0.9907	7.03	1.06	0.750			
0.3239	20732.25	3.9140	3.9139	1.0003	7.02	1.05	0.750			
0.3269	20922.90	3.9110	3.9110	1.0061	7.01	1.04	0.750			
0.3300	21118.04	3.9080	3.9080	1.0200	7.00	1.03	0.750			
0.3331	21317.66	3.9050	3.9050	1.0375	6.99	1.02	0.750			
0.3362	21519.10	3.9020	3.9020	1.0374	6.97	1.00	0.750			
0.3393	21717.63	3.8990	3.8990	1.0466	6.96	0.99	0.750			
0.3425	21918.53	3.8960	3.8961	1.0587	6.95	0.98	0.750			
0.3457	22121.98	3.8930	3.8930	1.0682	6.94	0.97	0.750			
0.3489	22329.22	3.8900	3.8900	1.0726	6.92	0.95	0.750			
0.3521	22534.19	3.8870	3.8871	1.0866	6.91	0.94	0.750			
0.3554	22743.25	3.8840	3.8841	1.1012	6.90	0.93	0.750			
0.3587	22957.64	3.8810	3.8808	1.1203	6.89	0.92	0.750			
0.3621	23171.61	3.8780	3.8781	1.1315	6.88	0.91	0.750			
0.3655	23390.99	3.8750	3.8750	1.1470	6.86	0.89	0.750			
0.3690	23614.61	3.8720	3.8720	1.1708	6.84	0.87	0.750			
0.3725	23842.81	3.8690	3.8690	1.1690	6.83	0.86	0.750			
0.3760	24067.16	3.8660	3.8660	1.1842	6.82	0.85	0.750			
0.3797	24302.06	3.8630	3.8630	1.1806	6.81	0.84	0.750			
0.3833	24529.96	3.8600	3.8599	1.1681	6.79	0.82	0.750			
0.3868	24752.95	3.8570	3.8571	1.1508	6.78	0.81	0.750			
0.3900	24962.90	3.8540	3.8545	1.1674	6.77	0.80	0.750			
0.3935	25181.32	3.8510	3.8508	1.1917	6.76	0.79	0.750			
0.3970	25406.99	3.8480	3.8474	1.2278	6.75	0.78	0.750			
0.4006	25639.55	3.8450	3.8451	1.2673	6.74	0.77	0.750			
0.4046	25891.54	3.8420	3.8423	1.3459	6.73	0.76	0.750			
0.4088	26164.76	3.8390	3.8387	1.4039	6.71	0.74	0.750			
0.4132	26443.35	3.8360	3.8351	1.4224	6.69	0.72	0.750	0.392	0.931	
0.4175	26718.49	3.8330	3.8333	1.4600	6.67	0.70	0.750			
0.4220	27005.89	3.8300	3.8298	1.4808	6.65	0.68	0.750			
0.4264	27289.45	3.8270	3.8271	1.5069	6.64	0.67	0.750			
0.4309	27580.73	3.8240	3.8240	1.5394	6.62	0.65	0.750			
0.4355	27872.12	3.8210	3.8211	1.5455	6.60	0.63	0.750			
0.4402	28171.93	3.8180	3.8182	1.5843	6.58	0.61	0.750			
0.4451	28484.18	3.8150	3.8150	1.6053	6.56	0.59	0.750			
0.4499	28790.57	3.8120	3.8120	1.6181	6.54	0.57	0.750			
0.4547	29103.63	3.8090	3.8091	1.6699	6.52	0.55	0.750			
0.4598	29424.49	3.8060	3.8060	1.7177	6.51	0.54	0.750			
0.4650	29758.12	3.8030	3.8030	1.7491	6.48	0.51	0.750			
0.4704	30103.44	3.8000	3.7999	1.7772	6.46	0.49	0.750			
0.4758	30449.84	3.7970	3.7975	1.8028	6.44	0.47	0.750			
0.4813	30800.40	3.7940	3.7942	1.8093	6.42	0.45	0.750			
0.4867	31147.56	3.7910	3.7909	1.8740	6.40	0.43	0.750			
0.4922	31503.78	3.7880	3.7883	1.9363	6.37	0.40	0.750			
0.4982	31885.52	3.7850	3.7848	1.9518	6.35	0.38	0.750			
0.5044	32279.43	3.7820	3.7819	1.9960	6.33	0.36	0.750			
0.5103	32661.21	3.7790	3.7792	2.0111	6.31	0.34	0.750			
0.5162	33034.09	3.7760	3.7764	2.0327	6.29	0.32	0.750			
0.5223	33428.56	3.7730	3.7729	2.0409	6.27	0.30	0.750			
0.5287	33833.89	3.7700	3.7699	2.0738	6.24	0.27	0.750			
0.5349	34232.35	3.7670	3.7668	2.1436	6.22	0.25	0.750			
0.5413	34642.53	3.7640	3.7639	2.1127	6.19	0.22	0.750			
0.5476	35049.48	3.7610	3.7612	2.1358	6.17	0.20	0.750			
0.5542	35469.15	3.7580	3.7578	2.1510	6.15	0.18	0.750			
0.5607	35883.75	3.7550	3.7552	2.1979	6.13	0.16	0.750			
0.5673	36304.36	3.7520	3.7519	2.3008	6.12	0.15	0.750			
0.5743	36755.05	3.7490	3.7489	2.2922	6.10	0.13	0.750			
0.5813	37206.38	3.7460	3.7460	2.3605	6.08	0.11	0.750			
0.5884	37656.20	3.7430	3.7429	2.4076	6.06	0.09	0.750			
0.5959	38136.07	3.7400	3.7400	2.5137	6.03	0.06	0.750			
0.6036	38631.46	3.7370	3.7368	2.5695	6.02	0.05	0.750			
0.6113	39125.42	3.7340	3.7341	2.5839	6.01	0.04	0.750			
0.6191	39623.06	3.7310	3.7309	2.6756	5.99	0.02	0.750			
0.6273	40146.45	3.7280	3.7278	2.7809	5.98	0.01	0.750			
0.6356	40681.12	3.7250	3.7251	2.8392	5.96	-0.01	0.750			
0.6445	41247.21	3.7220	3.7220	2.7863	5.94	-0.03	0.750			
0.6527	41769.64	3.7190	3.7194	2.6207	5.94	-0.03	0.750			
0.6603	42258.35	3.7160	3.7160	2.4012	5.93	-0.04	0.750			
0.6671	42695.06	3.7130	3.7129	2.2415	5.92	-0.05	0.750			
0.6738	43120.68	3.7100	3.7097	2.0628	5.92	-0.05	0.750			
0.6798	43507.72	3.7070	3.7069	1.9124	5.93	-0.04	0.750			
0.6851	43844.72	3.7040	3.7036	1.6563	5.93	-0.04	0.750			
0.6894	44124.60	3.7010	3.7012	1.4522	5.93	-0.04	0.750			
0.6934	44378.68	3.6980	3.6981	1.2668	5.93	-0.04	0.750			
0.6969	44598.94	3.6950	3.6947	1.1326	5.93	-0.04	0.750			
0.7000	44802.01	3.6920	3.6920	1.0223	5.93	-0.04	0.750			
0.7029	44986.23	3.6890	3.6891	0.9457	5.93	-0.04	0.750			
0.7056	45157.32	3.6860	3.6860	0.8905	5.93	-0.04	0.750			
0.7081	45320.36	3.6830	3.6830	0.8355	5.93	-0.04	0.750			
0.7106	45475.98	3.6800	3.6800	0.7961	5.93	-0.04	0.750			
0.7129	45624.43	3.6770	3.6771	0.7573	5.94	-0.03	0.750			
0.7152	45769.97	3.6740	3.6739	0.7115	5.95	-0.02	0.750			
0.7172	45902.54	3.6710	3.6709	0.6728	5.96	-0.01	0.750			
0.7192	46026.76	3.6680	3.6681	0.6229	5.96	-0.01	0.750			
0.7210	46140.91	3.6650	3.6652	0.5795	5.97	-0.00	0.750			
0.7226	46248.37	3.6620	3.6621	0.5332	5.97	0.00	0.750			
0.7242	46345.82	3.6590	3.6590	0.4878	5.98	0.01	0.750			
0.7255	46434.63	3.6560	3.6562	0.4444	5.98	0.01	0.750			
0.7268	46515.82	3.6530	3.6530	0.4038	5.99	0.02	0.750			
0.7279	46588.20	3.6500	3.6498	0.3606	5.99	0.02	0.750			
0.7290	46653.91	3.6470	3.6470	0.3237	5.99	0.02	0.750			
0.7299	46711.16	3.6440	3.6441	0.2871	6.00	0.03	0.750			
0.7307	46764.90	3.6410	3.6408	0.2529	6.00	0.03	0.750			
0.7314	46809.86	3.6380	3.6379	0.2151	6.00	0.03	0.750			
0.7320	46847.40	3.6350	3.6350	0.1775	6.00	0.03	0.750			
0.7325	46878.03	3.6320	3.6323	0.1395	6.00	0.03	0.750			
0.7329	46902.62	3.6290	3.6292	0.1000	6.01	0.04	0.750			
0.7331	46918.79	3.6260	3.6265	0.0554	6.01	0.04	0.750			
0.7332	46925.11	3.6230	3.6245	0.0105	6.01	0.04	0.750			
