Ah_balance (normalized)	Ah_balance (mAh)	Voltage - fit (V)	Voltage -  interpolate (V)	dQ/dV (1/V)	Temperature (°C)	Temperature - diff (°C)	Current (C)	R_DC 0ms (mOhm)	R_DC 50ms (mOhm)	R_DC 50 ms PEC (mOhm)
0.0939	6010.59	4.0040	4.0033	-0.0554	5.99	0.00	-0.750			
0.0941	6024.31	4.0010	4.0004	-0.0858	5.99	0.00	-0.750			
0.0944	6043.80	3.9980	3.9979	-0.1148	5.99	0.00	-0.750			
0.0948	6069.07	3.9950	3.9949	-0.1425	5.99	0.00	-0.750			
0.0953	6099.03	3.9920	3.9921	-0.1696	5.99	0.00	-0.750			
0.0959	6134.42	3.9890	3.9890	-0.1934	5.99	0.00	-0.750			
0.0965	6174.32	3.9860	3.9861	-0.2221	5.99	0.00	-0.750			
0.0972	6220.80	3.9830	3.9830	-0.2433	5.99	0.00	-0.750			
0.0980	6269.38	3.9800	3.9799	-0.2657	5.99	0.00	-0.750			
0.0988	6322.26	3.9770	3.9772	-0.2888	5.99	0.00	-0.750			
0.0997	6379.32	3.9740	3.9741	-0.3120	5.99	0.00	-0.750			
0.1006	6441.43	3.9710	3.9709	-0.3353	5.99	0.00	-0.750			
0.1017	6508.34	3.9680	3.9679	-0.3591	5.99	0.00	-0.750			
0.1028	6579.07	3.9650	3.9651	-0.3809	5.99	0.00	-0.750			
0.1040	6654.81	3.9620	3.9621	-0.4047	5.99	0.00	-0.750			
0.1052	6735.60	3.9590	3.9590	-0.4286	5.99	0.00	-0.750			
0.1066	6820.55	3.9560	3.9560	-0.4491	5.99	0.00	-0.750			
0.1080	6908.96	3.9530	3.9530	-0.4689	5.99	0.00	-0.750			
0.1094	7000.54	3.9500	3.9500	-0.4909	5.99	0.00	-0.750			
0.1109	7096.75	3.9470	3.9470	-0.5129	5.99	0.00	-0.750			
0.1125	7197.65	3.9440	3.9440	-0.5338	5.99	0.00	-0.750			
0.1141	7303.25	3.9410	3.9409	-0.5504	5.99	0.00	-0.750			
0.1158	7410.60	3.9380	3.9381	-0.5675	5.99	0.00	-0.750			
0.1175	7522.38	3.9350	3.9350	-0.5839	5.99	0.00	-0.750			
0.1193	7635.75	3.9320	3.9320	-0.5960	6.00	0.01	-0.750			
0.1211	7751.27	3.9290	3.9289	-0.6057	6.00	0.01	-0.750			
0.1230	7869.04	3.9260	3.9260	-0.6157	6.00	0.01	-0.750			
0.1248	7989.29	3.9230	3.9230	-0.6263	6.01	0.02	-0.750			
0.1267	8110.55	3.9200	3.9199	-0.6350	6.01	0.02	-0.750			
0.1286	8232.91	3.9170	3.9170	-0.6418	6.01	0.02	-0.750			
0.1306	8357.35	3.9140	3.9140	-0.6502	6.01	0.02	-0.750			
0.1325	8482.60	3.9110	3.9110	-0.6578	6.02	0.03	-0.750			
0.1346	8611.33	3.9080	3.9080	-0.6692	6.02	0.03	-0.750			
0.1366	8742.20	3.9050	3.9050	-0.6767	6.02	0.03	-0.750			
0.1386	8872.09	3.9020	3.9019	-0.6816	6.03	0.04	-0.750			
0.1407	9004.37	3.8990	3.8990	-0.6844	6.03	0.04	-0.750			
0.1427	9135.13	3.8960	3.8959	-0.6899	6.04	0.05	-0.750			
0.1448	9267.57	3.8930	3.8930	-0.6937	6.05	0.06	-0.750			
0.1469	9400.28	3.8900	3.8901	-0.6893	6.05	0.06	-0.750			
0.1490	9535.38	3.8870	3.8870	-0.7020	6.06	0.07	-0.750			
0.1511	9669.56	3.8840	3.8841	-0.7058	6.07	0.08	-0.750			
0.1532	9805.68	3.8810	3.8810	-0.7073	6.07	0.08	-0.750			
0.1553	9941.74	3.8780	3.8779	-0.7132	6.08	0.09	-0.750			
0.1575	10078.11	3.8750	3.8751	-0.7188	6.09	0.10	-0.750			
0.1597	10218.45	3.8720	3.8721	-0.7247	6.09	0.10	-0.750			
0.1619	10359.33	3.8690	3.8689	-0.7257	6.10	0.11	-0.750			
0.1640	10498.27	3.8660	3.8660	-0.7218	6.11	0.12	-0.750			
0.1662	10637.67	3.8630	3.8630	-0.7198	6.11	0.12	-0.750			
0.1684	10775.15	3.8600	3.8599	-0.7225	6.12	0.13	-0.750			
0.1705	10912.35	3.8570	3.8569	-0.7251	6.13	0.14	-0.750			
0.1727	11050.72	3.8540	3.8540	-0.7252	6.13	0.14	-0.750			
0.1749	11193.99	3.8510	3.8510	-0.7240	6.14	0.15	-0.750			
0.1771	11334.60	3.8480	3.8483	-0.7216	6.15	0.16	-0.750			
0.1792	11471.90	3.8450	3.8449	-0.7262	6.16	0.17	-0.750			
0.1814	11610.46	3.8420	3.8420	-0.7240	6.17	0.18	-0.750			
0.1836	11747.59	3.8390	3.8388	-0.7285	6.18	0.19	-0.750			
0.1857	11886.56	3.8360	3.8362	-0.7306	6.19	0.20	-0.750			
0.1880	12030.88	3.8330	3.8329	-0.7395	6.20	0.21	-0.750			
0.1902	12174.29	3.8300	3.8301	-0.7381	6.21	0.22	-0.750			
0.1924	12315.90	3.8270	3.8270	-0.7381	6.22	0.23	-0.750			
0.1946	12454.66	3.8240	3.8241	-0.7444	6.23	0.24	-0.750			
0.1969	12599.57	3.8210	3.8208	-0.7456	6.24	0.25	-0.750			
0.1991	12743.83	3.8180	3.8179	-0.7479	6.25	0.26	-0.750			
0.2014	12887.36	3.8150	3.8150	-0.7477	6.26	0.27	-0.750			
0.2036	13032.93	3.8120	3.8119	-0.7478	6.27	0.28	-0.750			
0.2059	13176.29	3.8090	3.8089	-0.7496	6.28	0.29	-0.750			
0.2081	13317.89	3.8060	3.8060	-0.7435	6.29	0.30	-0.750			
0.2103	13458.57	3.8030	3.8030	-0.7454	6.30	0.31	-0.750			
0.2126	13604.68	3.8000	3.8001	-0.7516	6.30	0.31	-0.750			
0.2148	13748.97	3.7970	3.7970	-0.7546	6.31	0.32	-0.750			
0.2171	13894.27	3.7940	3.7940	-0.7520	6.32	0.33	-0.750			
0.2194	14038.72	3.7910	3.7910	-0.7555	6.33	0.34	-0.750			
0.2216	14182.88	3.7880	3.7880	-0.7552	6.34	0.35	-0.750			
0.2239	14328.75	3.7850	3.7849	-0.7567	6.35	0.36	-0.750			
0.2262	14474.16	3.7820	3.7819	-0.7538	6.36	0.37	-0.750			
0.2284	14619.78	3.7790	3.7791	-0.7538	6.37	0.38	-0.750			
0.2307	14763.15	3.7760	3.7761	-0.7566	6.39	0.40	-0.750			
0.2330	14908.95	3.7730	3.7730	-0.7613	6.40	0.41	-0.750			
0.2352	15053.75	3.7700	3.7699	-0.7602	6.41	0.42	-0.750			
0.2375	15201.07	3.7670	3.7669	-0.7644	6.42	0.43	-0.750			
0.2398	15348.43	3.7640	3.7642	-0.7696	6.43	0.44	-0.750			
0.2421	15496.35	3.7610	3.7611	-0.7746	6.44	0.45	-0.750			
0.2445	15645.59	3.7580	3.7579	-0.7803	6.44	0.45	-0.750			
0.2468	15795.29	3.7550	3.7550	-0.7818	6.45	0.46	-0.750			
0.2491	15944.91	3.7520	3.7519	-0.7862	6.46	0.47	-0.750			
0.2515	16097.30	3.7490	3.7491	-0.7902	6.47	0.48	-0.750			
0.2539	16250.63	3.7460	3.7459	-0.7946	6.47	0.48	-0.750			
0.2563	16401.15	3.7430	3.7430	-0.8025	6.48	0.49	-0.750			
0.2587	16557.00	3.7400	3.7400	-0.8032	6.49	0.50	-0.750			
0.2611	16711.06	3.7370	3.7369	-0.8067	6.50	0.51	-0.750			
0.2635	16866.86	3.7340	3.7339	-0.8131	6.51	0.52	-0.750			
0.2660	17023.80	3.7310	3.7310	-0.8141	6.51	0.52	-0.750			
0.2684	17179.40	3.7280	3.7280	-0.8238	6.53	0.54	-0.750			
0.2709	17338.39	3.7250	3.7250	-0.8254	6.54	0.55	-0.750			
0.2734	17496.49	3.7220	3.7220	-0.8254	6.55	0.56	-0.750			
0.2759	17657.43	3.7190	3.7190	-0.8385	6.56	0.57	-0.750			
0.2784	17817.49	3.7160	3.7161	-0.8435	6.57	0.58	-0.750			
0.2809	17979.20	3.7130	3.7129	-0.8552	6.58	0.59	-0.750			
0.2835	18144.41	3.7100	3.7100	-0.8636	6.59	0.60	-0.750			
0.2861	18309.88	3.7070	3.7070	-0.8677	6.60	0.61	-0.750			
0.2888	18480.17	3.7040	3.7041	-0.8790	6.61	0.62	-0.750			
0.2914	18651.13	3.7010	3.7009	-0.8841	6.61	0.62	-0.750			
0.2941	18820.09	3.6980	3.6980	-0.8879	6.62	0.63	-0.750			
0.2967	18990.80	3.6950	3.6950	-0.8907	6.63	0.64	-0.750			
0.2994	19162.43	3.6920	3.6920	-0.8958	6.64	0.65	-0.750			
0.3021	19335.87	3.6890	3.6890	-0.9034	6.65	0.66	-0.750			
0.3048	19508.32	3.6860	3.6860	-0.9158	6.66	0.67	-0.750			
0.3076	19685.15	3.6830	3.6831	-0.9215	6.67	0.68	-0.750			
0.3104	19862.42	3.6800	3.6799	-0.9309	6.68	0.69	-0.750			
0.3132	20041.65	3.6770	3.6769	-0.9404	6.68	0.69	-0.750			
0.3160	20225.10	3.6740	3.6741	-0.9508	6.69	0.70	-0.750			
0.3189	20408.30	3.6710	3.6709	-0.9647	6.70	0.71	-0.750			
0.3218	20596.48	3.6680	3.6680	-0.9694	6.71	0.72	-0.750			
0.3247	20782.68	3.6650	3.6650	-0.9708	6.72	0.73	-0.750			
0.3277	20970.48	3.6620	3.6622	-0.9846	6.73	0.74	-0.750			
0.3306	21159.43	3.6590	3.6590	-0.9933	6.74	0.75	-0.750			
0.3336	21351.59	3.6560	3.6559	-0.9987	6.74	0.75	-0.750			
0.3366	21543.52	3.6530	3.6530	-1.0056	6.74	0.75	-0.750			
0.3397	21738.39	3.6500	3.6501	-1.0155	6.75	0.76	-0.750			
0.3427	21934.46	3.6470	3.6469	-1.0264	6.75	0.76	-0.750			
0.3458	22132.28	3.6440	3.6440	-1.0315	6.76	0.77	-0.750			
0.3489	22329.54	3.6410	3.6410	-1.0347	6.76	0.77	-0.750			
0.3520	22527.31	3.6380	3.6380	-1.0462	6.77	0.78	-0.750			
0.3552	22732.51	3.6350	3.6350	-1.0661	6.78	0.79	-0.750			
0.3584	22938.05	3.6320	3.6319	-1.0742	6.79	0.80	-0.750			
0.3617	23146.19	3.6290	3.6289	-1.0823	6.80	0.81	-0.750			
0.3649	23353.45	3.6260	3.6264	-1.0949	6.81	0.82	-0.750			
0.3682	23566.86	3.6230	3.6230	-1.1067	6.82	0.83	-0.750			
0.3716	23780.15	3.6200	3.6199	-1.1118	6.83	0.84	-0.750			
0.3749	23991.87	3.6170	3.6170	-1.1140	6.83	0.84	-0.750			
0.3783	24208.49	3.6140	3.6141	-1.1332	6.84	0.85	-0.750			
0.3817	24427.52	3.6110	3.6109	-1.1311	6.84	0.85	-0.750			
0.3851	24646.47	3.6080	3.6080	-1.1343	6.85	0.86	-0.750			
0.3885	24862.15	3.6050	3.6051	-1.1327	6.85	0.86	-0.750			
0.3919	25078.73	3.6020	3.6020	-1.1464	6.86	0.87	-0.750			
0.3953	25298.13	3.5990	3.5990	-1.1653	6.87	0.88	-0.750			
0.3988	25522.01	3.5960	3.5957	-1.1741	6.88	0.89	-0.750			
0.4023	25747.68	3.5930	3.5931	-1.2023	6.89	0.90	-0.750			
0.4060	25983.38	3.5900	3.5902	-1.2193	6.90	0.91	-0.750	0.464	1.039	
0.4097	26221.80	3.5870	3.5869	-1.2350	6.90	0.91	-0.750			
0.4134	26460.46	3.5840	3.5840	-1.2453	6.91	0.92	-0.750			
0.4171	26697.50	3.5810	3.5810	-1.2513	6.91	0.92	-0.750			
0.4209	26939.40	3.5780	3.5780	-1.2656	6.92	0.93	-0.750			
0.4247	27182.75	3.5750	3.5749	-1.2824	6.93	0.94	-0.750			
0.4285	27426.64	3.5720	3.5722	-1.2909	6.93	0.94	-0.750			
0.4325	27679.88	3.5690	3.5689	-1.3063	6.94	0.95	-0.750			
0.4364	27928.90	3.5660	3.5660	-1.3384	6.94	0.95	-0.750			
0.4404	28186.50	3.5630	3.5632	-1.3711	6.95	0.96	-0.750			
0.4446	28457.46	3.5600	3.5598	-1.3927	6.96	0.97	-0.750			
0.4489	28731.85	3.5570	3.5569	-1.4077	6.97	0.98	-0.750			
0.4532	29005.77	3.5540	3.5542	-1.4147	6.98	0.99	-0.750			
0.4575	29280.13	3.5510	3.5510	-1.4212	6.98	0.99	-0.750			
0.4618	29552.35	3.5480	3.5479	-1.4153	6.99	1.00	-0.750			
0.4659	29814.57	3.5450	3.5451	-1.4128	6.99	1.00	-0.750			
0.4702	30091.04	3.5420	3.5419	-1.4345	7.01	1.02	-0.750			
0.4745	30367.03	3.5390	3.5390	-1.4418	7.02	1.03	-0.750			
0.4789	30646.45	3.5360	3.5360	-1.4494	7.03	1.04	-0.750			
0.4832	30924.75	3.5330	3.5332	-1.4717	7.04	1.05	-0.750			
0.4876	31207.65	3.5300	3.5299	-1.4814	7.05	1.06	-0.750			
0.4921	31492.15	3.5270	3.5270	-1.4874	7.06	1.07	-0.750			
0.4966	31782.66	3.5240	3.5239	-1.5005	7.07	1.08	-0.750			
0.5011	32072.24	3.5210	3.5209	-1.5111	7.09	1.10	-0.750			
0.5056	32361.38	3.5180	3.5180	-1.5155	7.10	1.11	-0.750			
0.5102	32653.83	3.5150	3.5149	-1.5194	7.10	1.11	-0.750			
0.5148	32945.94	3.5120	3.5121	-1.5191	7.11	1.12	-0.750			
0.5193	33237.73	3.5090	3.5089	-1.5345	7.12	1.13	-0.750			
0.5240	33535.80	3.5060	3.5061	-1.5461	7.14	1.15	-0.750			
0.5286	33832.74	3.5030	3.5031	-1.5472	7.15	1.16	-0.750			
0.5333	34132.11	3.5000	3.4998	-1.5448	7.16	1.17	-0.750			
0.5379	34428.17	3.4970	3.4969	-1.5371	7.17	1.18	-0.750			
0.5425	34720.43	3.4940	3.4938	-1.5247	7.18	1.19	-0.750			
0.5471	35016.15	3.4910	3.4909	-1.5425	7.19	1.20	-0.750			
0.5517	35307.80	3.4880	3.4881	-1.5327	7.20	1.21	-0.750			
0.5563	35604.94	3.4850	3.4849	-1.5290	7.21	1.22	-0.750			
0.5609	35898.59	3.4820	3.4822	-1.5280	7.22	1.23	-0.750			
0.5656	36198.52	3.4790	3.4790	-1.5300	7.23	1.24	-0.750			
0.5702	36490.64	3.4760	3.4757	-1.5174	7.25	1.26	-0.750			
0.5747	36779.46	3.4730	3.4731	-1.5107	7.26	1.27	-0.750			
0.5792	37066.96	3.4700	3.4700	-1.4983	7.27	1.28	-0.750			
0.5837	37358.42	3.4670	3.4669	-1.4960	7.28	1.29	-0.750			
0.5882	37643.82	3.4640	3.4640	-1.4912	7.29	1.30	-0.750			
0.5926	37926.52	3.4610	3.4610	-1.4736	7.30	1.31	-0.750			
0.5971	38213.24	3.4580	3.4579	-1.4700	7.31	1.32	-0.750			
0.6015	38492.92	3.4550	3.4550	-1.4558	7.33	1.34	-0.750			
0.6058	38771.17	3.4520	3.4520	-1.4372	7.34	1.35	-0.750			
0.6101	39047.79	3.4490	3.4489	-1.4222	7.35	1.36	-0.750			
0.6144	39318.67	3.4460	3.4461	-1.4043	7.36	1.37	-0.750			
0.6185	39585.40	3.4430	3.4430	-1.3857	7.37	1.38	-0.750			
0.6227	39852.77	3.4400	3.4400	-1.3687	7.38	1.39	-0.750			
0.6267	40110.97	3.4370	3.4370	-1.3540	7.40	1.41	-0.750			
0.6308	40369.15	3.4340	3.4340	-1.3331	7.41	1.42	-0.750			
0.6348	40626.60	3.4310	3.4309	-1.3172	7.43	1.44	-0.750			
0.6387	40877.20	3.4280	3.4280	-1.2930	7.45	1.46	-0.750			
0.6426	41123.70	3.4250	3.4250	-1.2649	7.46	1.47	-0.750			
0.6463	41365.61	3.4220	3.4219	-1.2394	7.47	1.48	-0.750			
0.6500	41601.21	3.4190	3.4190	-1.2085	7.48	1.49	-0.750			
0.6535	41826.45	3.4160	3.4160	-1.1793	7.49	1.50	-0.750			
0.6571	42054.65	3.4130	3.4130	-1.1602	7.51	1.52	-0.750			
0.6605	42274.41	3.4100	3.4099	-1.1290	7.52	1.53	-0.750			
0.6639	42488.48	3.4070	3.4070	-1.1020	7.54	1.55	-0.750			
0.6672	42697.68	3.4040	3.4040	-1.0785	7.55	1.56	-0.750			
0.6703	42901.73	3.4010	3.4009	-1.0524	7.56	1.57	-0.750			
0.6735	43101.62	3.3980	3.3980	-1.0221	7.57	1.58	-0.750			
0.6765	43293.05	3.3950	3.3950	-0.9937	7.59	1.60	-0.750			
0.6794	43483.05	3.3920	3.3920	-0.9758	7.60	1.61	-0.750			
0.6823	43668.03	3.3890	3.3889	-0.9522	7.61	1.62	-0.750			
0.6851	43847.60	3.3860	3.3859	-0.9218	7.63	1.64	-0.750			
0.6878	44021.42	3.3830	3.3830	-0.8981	7.64	1.65	-0.750			
0.6905	44193.79	3.3800	3.3801	-0.8738	7.65	1.66	-0.750			
0.6931	44359.82	3.3770	3.3769	-0.8500	7.67	1.68	-0.750			
0.6956	44518.22	3.3740	3.3740	-0.8277	7.68	1.69	-0.750			
0.6981	44675.78	3.3710	3.3710	-0.8044	7.69	1.70	-0.750			
0.7004	44828.41	3.3680	3.3679	-0.7828	7.70	1.71	-0.750			
0.7028	44977.29	3.3650	3.3652	-0.7632	7.71	1.72	-0.750			
0.7050	45120.99	3.3620	3.3620	-0.7403	7.72	1.73	-0.750			
0.7072	45260.92	3.3590	3.3589	-0.7231	7.73	1.74	-0.750			
0.7093	45395.97	3.3560	3.3561	-0.7025	7.74	1.75	-0.750			
0.7114	45530.19	3.3530	3.3529	-0.6877	7.75	1.76	-0.750			
0.7135	45661.03	3.3500	3.3500	-0.6707	7.76	1.77	-0.750			
0.7154	45788.77	3.3470	3.3470	-0.6536	7.77	1.78	-0.750			
0.7174	45912.30	3.3440	3.3441	-0.6350	7.78	1.79	-0.750			
0.7193	46032.99	3.3410	3.3409	-0.6113	7.79	1.80	-0.750			
0.7211	46148.28	3.3380	3.3380	-0.5904	7.80	1.81	-0.750			
