Ah_balance (normalized)	Ah_balance (mAh)	Voltage - fit (V)	Voltage -  interpolate (V)	dQ/dV (1/V)	Temperature (°C)	Temperature - diff (°C)	Current (C)	R_DC 0ms (mOhm)	R_DC 50ms (mOhm)	R_DC 50 ms PEC (mOhm)
0.0550	3522.81	4.1970	4.1986	1.6129	4.95	0.65	0.231			
0.0592	3787.86	4.1940	4.1953	1.3017	4.95	0.65	0.250			
0.0625	4000.06	4.1910	4.1913	1.1069	4.95	0.65	0.250			
0.0651	4164.09	4.1880	4.1880	0.7858	4.95	0.65	0.250			
0.0674	4316.38	4.1850	4.1850	0.7838	4.94	0.64	0.250			
0.0698	4465.27	4.1820	4.1820	0.7834	4.94	0.64	0.250			
0.0721	4615.01	4.1790	4.1791	0.7830	4.94	0.64	0.250			
0.0745	4764.90	4.1760	4.1760	0.7899	4.94	0.64	0.250			
0.0768	4917.51	4.1730	4.1731	0.7958	4.94	0.64	0.250			
0.0792	5070.45	4.1700	4.1700	0.7970	4.94	0.64	0.250			
0.0816	5224.30	4.1670	4.1670	0.8007	4.94	0.64	0.250			
0.0840	5379.16	4.1640	4.1640	0.8050	4.93	0.63	0.250			
0.0865	5533.17	4.1610	4.1610	0.8084	4.93	0.63	0.250			
0.0889	5689.57	4.1580	4.1580	0.8074	4.93	0.63	0.250			
0.0913	5844.20	4.1550	4.1550	0.8053	4.93	0.63	0.250			
0.0937	5998.98	4.1520	4.1520	0.8109	4.93	0.63	0.250			
0.0962	6155.12	4.1490	4.1490	0.8117	4.92	0.62	0.250			
0.0986	6310.94	4.1460	4.1460	0.8080	4.92	0.62	0.250			
0.1010	6465.91	4.1430	4.1430	0.8102	4.91	0.61	0.250			
0.1035	6621.58	4.1400	4.1400	0.8133	4.91	0.61	0.250			
0.1059	6779.46	4.1370	4.1369	0.8163	4.91	0.61	0.250			
0.1084	6934.74	4.1340	4.1341	0.8197	4.91	0.61	0.250			
0.1108	7091.51	4.1310	4.1311	0.8200	4.91	0.61	0.250			
0.1133	7250.69	4.1280	4.1279	0.8267	4.91	0.61	0.250			
0.1158	7410.82	4.1250	4.1250	0.8266	4.91	0.61	0.250			
0.1183	7569.82	4.1220	4.1220	0.8278	4.91	0.61	0.250			
0.1208	7729.25	4.1190	4.1191	0.8299	4.90	0.60	0.250			
0.1232	7886.54	4.1160	4.1160	0.8290	4.90	0.60	0.250			
0.1257	8045.41	4.1130	4.1130	0.8303	4.90	0.60	0.250			
0.1282	8205.59	4.1100	4.1099	0.8345	4.90	0.60	0.250			
0.1307	8366.54	4.1070	4.1070	0.8415	4.90	0.60	0.250			
0.1333	8529.42	4.1040	4.1041	0.8454	4.89	0.59	0.250			
0.1358	8691.01	4.1010	4.1011	0.8468	4.88	0.58	0.250			
0.1383	8854.10	4.0980	4.0980	0.8474	4.90	0.60	0.250			
0.1409	9016.09	4.0950	4.0949	0.8476	4.90	0.60	0.250			
0.1435	9181.42	4.0920	4.0920	0.8529	4.90	0.60	0.250			
0.1460	9344.79	4.0890	4.0890	0.8535	4.89	0.59	0.250			
0.1486	9507.55	4.0860	4.0860	0.8538	4.88	0.58	0.250			
0.1511	9671.63	4.0830	4.0831	0.8529	4.87	0.57	0.250			
0.1537	9835.44	4.0800	4.0799	0.8559	4.87	0.57	0.250			
0.1563	10000.25	4.0770	4.0770	0.8608	4.87	0.57	0.250			
0.1588	10165.17	4.0740	4.0740	0.8691	4.87	0.57	0.250			
0.1615	10333.16	4.0710	4.0710	0.8741	4.87	0.57	0.250			
0.1641	10501.56	4.0680	4.0681	0.8747	4.86	0.56	0.250			
0.1667	10670.59	4.0650	4.0651	0.8781	4.85	0.55	0.250			
0.1694	10840.43	4.0620	4.0621	0.8826	4.85	0.55	0.250			
0.1720	11009.48	4.0590	4.0589	0.8843	4.85	0.55	0.250			
0.1747	11178.54	4.0560	4.0559	0.8900	4.85	0.55	0.250			
0.1773	11349.85	4.0530	4.0530	0.8948	4.85	0.55	0.250			
0.1801	11524.12	4.0500	4.0500	0.8996	4.84	0.54	0.250			
0.1828	11696.26	4.0470	4.0471	0.8976	4.84	0.54	0.250			
0.1855	11868.87	4.0440	4.0440	0.8970	4.83	0.53	0.250			
0.1881	12041.18	4.0410	4.0409	0.8961	4.83	0.53	0.250			
0.1908	12212.70	4.0380	4.0379	0.9000	4.83	0.53	0.250			
0.1935	12384.62	4.0350	4.0350	0.9054	4.83	0.53	0.250			
0.1962	12558.03	4.0320	4.0320	0.9110	4.83	0.53	0.250			
0.1990	12734.91	4.0290	4.0290	0.9206	4.83	0.53	0.250			
0.2018	12912.01	4.0260	4.0262	0.9267	4.82	0.52	0.250			
0.2046	13091.98	4.0230	4.0230	0.9348	4.81	0.51	0.250			
0.2074	13273.19	4.0200	4.0200	0.9351	4.81	0.51	0.250			
0.2102	13452.33	4.0170	4.0171	0.9357	4.81	0.51	0.250			
0.2130	13633.32	4.0140	4.0139	0.9362	4.80	0.50	0.250			
0.2158	13812.50	4.0110	4.0109	0.9303	4.79	0.49	0.250			
0.2186	13990.81	4.0080	4.0080	0.9275	4.78	0.48	0.250			
0.2214	14167.57	4.0050	4.0051	0.9321	4.77	0.47	0.250			
0.2242	14345.97	4.0020	4.0020	0.9369	4.77	0.47	0.250			
0.2270	14525.64	3.9990	3.9990	0.9454	4.77	0.47	0.250			
0.2298	14708.44	3.9960	3.9961	0.9523	4.77	0.47	0.250			
0.2327	14894.91	3.9930	3.9930	0.9591	4.76	0.46	0.250			
0.2356	15080.03	3.9900	3.9900	0.9645	4.75	0.45	0.250			
0.2385	15265.29	3.9870	3.9870	0.9615	4.76	0.46	0.250			
0.2414	15448.25	3.9840	3.9839	0.9646	4.76	0.46	0.250			
0.2443	15632.69	3.9810	3.9810	0.9636	4.75	0.45	0.250			
0.2471	15817.54	3.9780	3.9779	0.9656	4.75	0.45	0.250			
0.2501	16004.83	3.9750	3.9750	0.9684	4.74	0.44	0.250			
0.2530	16189.64	3.9720	3.9719	0.9722	4.74	0.44	0.250			
0.2559	16376.33	3.9690	3.9690	0.9805	4.75	0.45	0.250			
0.2588	16565.99	3.9660	3.9658	0.9833	4.75	0.45	0.250			
0.2618	16754.95	3.9630	3.9630	0.9873	4.75	0.45	0.250			
0.2648	16946.47	3.9600	3.9601	0.9945	4.74	0.44	0.250			
0.2678	17138.45	3.9570	3.9570	0.9967	4.73	0.43	0.250			
0.2708	17329.70	3.9540	3.9540	0.9965	4.73	0.43	0.250			
0.2738	17520.89	3.9510	3.9511	0.9948	4.73	0.43	0.250			
0.2768	17712.15	3.9480	3.9480	1.0006	4.72	0.42	0.250			
0.2798	17905.78	3.9450	3.9450	0.9985	4.72	0.42	0.250			
0.2827	18096.00	3.9420	3.9421	1.0001	4.72	0.42	0.250			
0.2858	18288.31	3.9390	3.9391	1.0059	4.71	0.41	0.250			
0.2888	18481.91	3.9360	3.9360	1.0132	4.71	0.41	0.250			
0.2918	18677.26	3.9330	3.9330	1.0200	4.71	0.41	0.250			
0.2949	18875.47	3.9300	3.9301	1.0230	4.71	0.41	0.250			
0.2980	19071.66	3.9270	3.9270	1.0270	4.70	0.40	0.250			
0.3011	19270.38	3.9240	3.9241	1.0294	4.70	0.40	0.250			
0.3042	19465.64	3.9210	3.9210	1.0303	4.70	0.40	0.250			
0.3072	19661.96	3.9180	3.9180	1.0413	4.71	0.41	0.250			
0.3103	19860.91	3.9150	3.9150	1.0561	4.72	0.42	0.250			
0.3136	20067.58	3.9120	3.9119	1.0740	4.72	0.42	0.250			
0.3168	20276.61	3.9090	3.9089	1.0838	4.72	0.42	0.250			
0.3201	20487.33	3.9060	3.9061	1.0855	4.72	0.42	0.250			
0.3234	20698.49	3.9030	3.9031	1.0844	4.72	0.42	0.250			
0.3266	20903.73	3.9000	3.9001	1.0776	4.72	0.42	0.250			
0.3298	21107.35	3.8970	3.8971	1.0721	4.71	0.41	0.250			
0.3330	21313.57	3.8940	3.8940	1.0781	4.71	0.41	0.250			
0.3363	21520.43	3.8910	3.8911	1.0830	4.72	0.42	0.250			
0.3395	21729.29	3.8880	3.8880	1.0921	4.72	0.42	0.250			
0.3428	21939.45	3.8850	3.8850	1.1024	4.71	0.41	0.250			
0.3461	22151.48	3.8820	3.8820	1.1084	4.70	0.40	0.250			
0.3495	22365.02	3.8790	3.8790	1.1156	4.70	0.40	0.250			
0.3528	22580.38	3.8760	3.8760	1.1203	4.70	0.40	0.250			
0.3562	22796.52	3.8730	3.8729	1.1218	4.69	0.39	0.250			
0.3596	23013.05	3.8700	3.8701	1.1250	4.69	0.39	0.250			
0.3630	23229.12	3.8670	3.8669	1.1263	4.68	0.38	0.250			
0.3663	23442.58	3.8640	3.8640	1.1326	4.67	0.37	0.250			
0.3697	23660.17	3.8610	3.8610	1.1433	4.67	0.37	0.250			
0.3731	23881.54	3.8580	3.8579	1.1536	4.67	0.37	0.250			
0.3766	24103.95	3.8550	3.8550	1.1634	4.67	0.37	0.250			
0.3802	24329.62	3.8520	3.8520	1.1766	4.67	0.37	0.250			
0.3837	24556.73	3.8490	3.8490	1.1845	4.66	0.36	0.250			
0.3873	24784.44	3.8460	3.8461	1.1906	4.66	0.36	0.250			
0.3908	25012.37	3.8430	3.8430	1.1989	4.66	0.36	0.250			
0.3944	25244.21	3.8400	3.8400	1.2104	4.66	0.36	0.250			
0.3981	25478.64	3.8370	3.8370	1.2201	4.65	0.35	0.250			
0.4018	25712.68	3.8340	3.8340	1.2300	4.65	0.35	0.250			
0.4055	25950.04	3.8310	3.8310	1.2429	4.63	0.33	0.250			
0.4092	26189.75	3.8280	3.8279	1.2555	4.63	0.33	0.250			
0.4130	26431.89	3.8250	3.8250	1.2645	4.62	0.32	0.250			
0.4168	26676.43	3.8220	3.8220	1.2738	4.61	0.31	0.250			
0.4207	26922.67	3.8190	3.8190	1.2875	4.60	0.30	0.250			
0.4245	27170.72	3.8160	3.8159	1.2925	4.60	0.30	0.250			
0.4284	27419.10	3.8130	3.8129	1.2993	4.58	0.28	0.250			
0.4323	27670.04	3.8100	3.8100	1.3063	4.56	0.26	0.250			
0.4363	27922.30	3.8070	3.8071	1.3097	4.55	0.25	0.250			
0.4402	28173.62	3.8040	3.8040	1.3177	4.55	0.25	0.250			
0.4442	28427.63	3.8010	3.8009	1.3191	4.53	0.23	0.250			
0.4481	28680.99	3.7980	3.7980	1.3180	4.52	0.22	0.250			
0.4521	28934.95	3.7950	3.7951	1.3129	4.52	0.22	0.250			
0.4561	29189.43	3.7920	3.7919	1.3036	4.50	0.20	0.250			
0.4600	29438.97	3.7890	3.7890	1.2802	4.47	0.17	0.250			
0.4638	29683.73	3.7860	3.7860	1.2439	4.45	0.15	0.250			
0.4675	29922.24	3.7830	3.7830	1.2010	4.44	0.14	0.250			
0.4711	30149.56	3.7800	3.7800	1.1486	4.43	0.13	0.250			
0.4745	30367.18	3.7770	3.7769	1.0885	4.41	0.11	0.250			
0.4777	30570.40	3.7740	3.7740	1.0216	4.39	0.09	0.250			
0.4806	30759.85	3.7710	3.7711	0.9534	4.36	0.06	0.250			
0.4834	30935.87	3.7680	3.7680	0.8866	4.35	0.05	0.250			
0.4859	31100.30	3.7650	3.7650	0.8146	4.35	0.05	0.250			
0.4883	31248.78	3.7620	3.7621	0.7509	4.34	0.04	0.250			
0.4904	31385.27	3.7590	3.7590	0.6946	4.33	0.03	0.250			
0.4923	31509.77	3.7560	3.7558	0.6421	4.33	0.03	0.250			
0.4942	31627.93	3.7530	3.7529	0.5994	4.32	0.02	0.250			
0.4959	31738.72	3.7500	3.7499	0.5582	4.31	0.01	0.250			
0.4975	31842.68	3.7470	3.7469	0.5160	4.30	0.00	0.250			
0.4991	31940.44	3.7440	3.7441	0.4740	4.30	0.00	0.250			
0.5004	32026.58	3.7410	3.7410	0.4245	4.30	0.00	0.250			
0.5016	32102.96	3.7380	3.7379	0.3748	4.30	0.00	0.250			
0.5027	32170.73	3.7350	3.7350	0.3256	4.30	0.00	0.250			
0.5036	32228.76	3.7320	3.7320	0.2778	4.30	0.00	0.250			
0.5043	32277.95	3.7290	3.7290	0.2298	4.30	0.00	0.250			
0.5050	32317.72	3.7260	3.7261	0.1803	4.30	0.00	0.250			
0.5054	32347.31	3.7230	3.7233	0.1306	4.30	0.00	0.250			
0.5057	32367.63	3.7200	3.7209	0.0779	4.30	0.00	0.250			
