Ah_balance (normalized)	Ah_balance (mAh)	Voltage - fit (V)	Voltage -  interpolate (V)	dQ/dV (1/V)	Temperature (°C)	Temperature - diff (°C)	Current (C)	R_DC 0ms (mOhm)	R_DC 50ms (mOhm)	R_DC 50 ms PEC (mOhm)
0.1795	11489.13	4.0810	4.0810	0.7188	7.53	1.54	0.750			
0.1817	11629.99	4.0780	4.0782	0.7462	7.52	1.53	0.750			
0.1840	11777.51	4.0750	4.0746	0.7683	7.51	1.52	0.750			
0.1864	11927.71	4.0720	4.0721	0.7770	7.50	1.51	0.750			
0.1887	12078.55	4.0690	4.0691	0.7807	7.50	1.51	0.750			
0.1911	12231.62	4.0660	4.0661	0.7883	7.49	1.50	0.750			
0.1935	12385.05	4.0630	4.0629	0.7901	7.48	1.49	0.750			
0.1958	12532.06	4.0600	4.0600	0.7827	7.47	1.48	0.750			
0.1982	12682.84	4.0570	4.0571	0.7840	7.47	1.48	0.750			
0.2006	12836.86	4.0540	4.0539	0.7807	7.46	1.47	0.750			
0.2029	12982.49	4.0510	4.0511	0.7890	7.46	1.47	0.750			
0.2052	13134.00	4.0480	4.0480	0.7910	7.45	1.46	0.750			
0.2076	13285.07	4.0450	4.0451	0.7949	7.44	1.45	0.750			
0.2100	13438.79	4.0420	4.0418	0.7975	7.44	1.45	0.750			
0.2124	13593.86	4.0390	4.0394	0.7987	7.43	1.44	0.750			
0.2148	13749.69	4.0360	4.0360	0.8034	7.43	1.44	0.750			
0.2172	13902.39	4.0330	4.0331	0.8107	7.42	1.43	0.750			
0.2196	14056.58	4.0300	4.0300	0.8079	7.42	1.43	0.750			
0.2221	14213.00	4.0270	4.0268	0.8159	7.41	1.42	0.750			
0.2245	14369.90	4.0240	4.0241	0.8185	7.40	1.41	0.750			
0.2270	14528.04	4.0210	4.0211	0.8222	7.39	1.40	0.750			
0.2295	14685.65	4.0180	4.0180	0.8231	7.39	1.40	0.750			
0.2319	14842.35	4.0150	4.0150	0.8278	7.38	1.39	0.750			
0.2344	15001.45	4.0120	4.0117	0.8306	7.37	1.38	0.750			
0.2369	15164.10	4.0090	4.0091	0.8313	7.36	1.37	0.750			
0.2394	15323.36	4.0060	4.0061	0.8371	7.35	1.36	0.750			
0.2420	15485.07	4.0030	4.0031	0.8448	7.35	1.36	0.750			
0.2445	15646.64	4.0000	4.0000	0.8434	7.34	1.35	0.750			
0.2470	15809.32	3.9970	3.9968	0.8458	7.33	1.34	0.750			
0.2496	15972.80	3.9940	3.9940	0.8426	7.33	1.34	0.750			
0.2521	16136.49	3.9910	3.9912	0.8532	7.32	1.33	0.750			
0.2547	16298.98	3.9880	3.9880	0.8584	7.32	1.33	0.750			
0.2572	16461.93	3.9850	3.9850	0.8599	7.31	1.32	0.750			
0.2598	16626.59	3.9820	3.9820	0.8670	7.31	1.32	0.750			
0.2624	16796.63	3.9790	3.9791	0.8694	7.30	1.31	0.750			
0.2651	16966.76	3.9760	3.9760	0.8792	7.29	1.30	0.750			
0.2677	17135.75	3.9730	3.9730	0.8790	7.28	1.29	0.750			
0.2704	17303.06	3.9700	3.9700	0.8783	7.27	1.28	0.750			
0.2730	17470.34	3.9670	3.9671	0.8813	7.26	1.27	0.750			
0.2756	17640.87	3.9640	3.9640	0.8869	7.25	1.26	0.750			
0.2783	17810.25	3.9610	3.9610	0.8971	7.24	1.25	0.750			
0.2810	17984.94	3.9580	3.9580	0.9062	7.24	1.25	0.750			
0.2837	18158.47	3.9550	3.9547	0.9050	7.23	1.24	0.750			
0.2865	18336.02	3.9520	3.9520	0.9068	7.22	1.23	0.750			
0.2892	18509.49	3.9490	3.9490	0.9078	7.21	1.22	0.750			
0.2919	18682.78	3.9460	3.9461	0.9135	7.21	1.22	0.750			
0.2947	18857.93	3.9430	3.9431	0.9212	7.20	1.21	0.750			
0.2974	19032.69	3.9400	3.9399	0.9255	7.19	1.20	0.750			
0.3002	19215.49	3.9370	3.9370	0.9226	7.18	1.19	0.750			
0.3030	19390.83	3.9340	3.9341	0.9434	7.17	1.18	0.750			
0.3058	19572.97	3.9310	3.9311	0.9524	7.16	1.17	0.750			
0.3087	19757.14	3.9280	3.9277	0.9575	7.15	1.16	0.750			
0.3116	19943.99	3.9250	3.9250	0.9550	7.14	1.15	0.750			
0.3145	20127.39	3.9220	3.9222	0.9652	7.13	1.14	0.750			
0.3174	20313.26	3.9190	3.9191	0.9771	7.12	1.13	0.750			
0.3203	20500.82	3.9160	3.9159	0.9791	7.11	1.12	0.750			
0.3233	20690.54	3.9130	3.9130	0.9879	7.10	1.11	0.750			
0.3263	20882.18	3.9100	3.9101	1.0005	7.10	1.11	0.750			
0.3293	21075.51	3.9070	3.9070	1.0117	7.09	1.10	0.750			
0.3324	21273.91	3.9040	3.9041	1.0272	7.08	1.09	0.750			
0.3355	21470.34	3.9010	3.9011	1.0228	7.07	1.08	0.750			
0.3385	21665.69	3.8980	3.8979	1.0367	7.06	1.07	0.750			
0.3416	21864.71	3.8950	3.8951	1.0503	7.05	1.06	0.750			
0.3448	22068.92	3.8920	3.8920	1.0609	7.04	1.05	0.750			
0.3480	22274.34	3.8890	3.8890	1.0698	7.03	1.04	0.750			
0.3512	22479.89	3.8860	3.8861	1.0839	7.02	1.03	0.750			
0.3545	22688.65	3.8830	3.8830	1.1018	7.01	1.02	0.750			
0.3579	22903.47	3.8800	3.8799	1.1182	6.99	1.00	0.750			
0.3612	23118.23	3.8770	3.8770	1.1199	6.98	0.99	0.750			
0.3646	23333.61	3.8740	3.8741	1.1364	6.96	0.97	0.750			
0.3680	23553.80	3.8710	3.8711	1.1537	6.95	0.96	0.750			
0.3715	23778.83	3.8680	3.8676	1.1606	6.93	0.94	0.750			
0.3750	24000.60	3.8650	3.8651	1.1768	6.92	0.93	0.750			
0.3785	24226.41	3.8620	3.8621	1.2028	6.90	0.91	0.750			
0.3822	24461.64	3.8590	3.8592	1.2287	6.89	0.90	0.750			
0.3859	24699.08	3.8560	3.8560	1.2294	6.87	0.88	0.750			
0.3896	24937.04	3.8530	3.8531	1.2473	6.86	0.87	0.750			
0.3934	25179.58	3.8500	3.8501	1.2620	6.84	0.85	0.750			
0.3972	25423.75	3.8470	3.8469	1.2717	6.83	0.84	0.750			
0.4009	25657.11	3.8440	3.8443	1.2912	6.81	0.82	0.750			
0.4047	25902.99	3.8410	3.8411	1.3357	6.79	0.80	0.750			
0.4088	26163.97	3.8380	3.8375	1.3699	6.77	0.78	0.750	0.405	0.935	
0.4130	26430.15	3.8350	3.8355	1.4073	6.75	0.76	0.750			
0.4173	26707.45	3.8320	3.8324	1.4551	6.73	0.74	0.750			
0.4220	27006.10	3.8290	3.8287	1.4646	6.71	0.72	0.750			
0.4264	27291.03	3.8260	3.8260	1.4844	6.69	0.70	0.750			
0.4306	27560.92	3.8230	3.8232	1.4824	6.68	0.69	0.750			
0.4352	27850.05	3.8200	3.8197	1.5154	6.67	0.68	0.750			
0.4398	28146.00	3.8170	3.8171	1.5312	6.64	0.65	0.750			
0.4445	28446.56	3.8140	3.8144	1.5540	6.62	0.63	0.750			
0.4492	28749.93	3.8110	3.8110	1.5955	6.60	0.61	0.750			
0.4539	29046.42	3.8080	3.8078	1.6433	6.58	0.59	0.750			
0.4589	29367.44	3.8050	3.8047	1.6609	6.56	0.57	0.750			
0.4640	29695.31	3.8020	3.8023	1.7039	6.54	0.55	0.750			
0.4693	30036.28	3.7990	3.7994	1.7622	6.51	0.52	0.750			
0.4747	30379.89	3.7960	3.7960	1.7803	6.49	0.50	0.750			
0.4800	30718.74	3.7930	3.7931	1.7924	6.47	0.48	0.750			
0.4853	31061.95	3.7900	3.7900	1.8371	6.44	0.45	0.750			
0.4909	31419.34	3.7870	3.7869	1.8609	6.42	0.43	0.750			
0.4965	31776.87	3.7840	3.7839	1.8869	6.39	0.40	0.750			
0.5023	32148.53	3.7810	3.7810	1.9060	6.37	0.38	0.750			
0.5082	32522.59	3.7780	3.7779	1.9225	6.35	0.36	0.750			
0.5139	32888.37	3.7750	3.7752	1.9330	6.33	0.34	0.750			
0.5199	33271.06	3.7720	3.7719	1.9764	6.30	0.31	0.750			
0.5258	33650.13	3.7690	3.7689	1.9972	6.28	0.29	0.750			
0.5319	34043.56	3.7660	3.7658	2.0039	6.26	0.27	0.750			
0.5380	34429.13	3.7630	3.7633	2.0150	6.24	0.25	0.750			
0.5438	34805.17	3.7600	3.7604	2.0232	6.22	0.23	0.750			
0.5502	35211.39	3.7570	3.7571	2.0475	6.20	0.21	0.750			
0.5563	35601.87	3.7540	3.7540	2.0707	6.18	0.19	0.750			
0.5626	36008.85	3.7510	3.7506	2.1169	6.16	0.17	0.750			
0.5690	36413.15	3.7480	3.7481	2.1832	6.14	0.15	0.750			
0.5756	36836.04	3.7450	3.7454	2.2206	6.12	0.13	0.750			
0.5826	37285.94	3.7420	3.7423	2.3025	6.10	0.11	0.750			
0.5894	37722.12	3.7390	3.7388	2.2911	6.07	0.08	0.750			
0.5964	38172.46	3.7360	3.7360	2.3203	6.05	0.06	0.750			
0.6039	38646.86	3.7330	3.7329	2.4365	6.04	0.05	0.750			
0.6112	39117.79	3.7300	3.7300	2.5200	6.02	0.03	0.750			
0.6188	39603.91	3.7270	3.7267	2.5029	6.00	0.01	0.750			
0.6263	40084.59	3.7240	3.7241	2.4898	5.98	-0.01	0.750			
0.6338	40564.80	3.7210	3.7210	2.4742	5.97	-0.02	0.750			
0.6410	41021.63	3.7180	3.7178	2.3428	5.96	-0.03	0.750			
0.6480	41470.75	3.7150	3.7148	2.1958	5.95	-0.04	0.750			
0.6543	41875.95	3.7120	3.7121	2.0783	5.94	-0.05	0.750			
0.6602	42252.60	3.7090	3.7087	1.8159	5.94	-0.05	0.750			
0.6653	42579.90	3.7060	3.7063	1.6415	5.94	-0.05	0.750			
0.6699	42875.13	3.7030	3.7031	1.4639	5.95	-0.04	0.750			
0.6741	43140.92	3.7000	3.7001	1.3079	5.95	-0.04	0.750			
0.6776	43365.08	3.6970	3.6972	1.1703	5.95	-0.04	0.750			
0.6810	43581.24	3.6940	3.6939	1.0937	5.95	-0.04	0.750			
0.6839	43770.13	3.6910	3.6906	1.0101	5.95	-0.04	0.750			
0.6867	43950.93	3.6880	3.6880	0.9448	5.95	-0.04	0.750			
0.6895	44126.49	3.6850	3.6851	0.8953	5.95	-0.04	0.750			
0.6921	44294.98	3.6820	3.6820	0.8637	5.95	-0.04	0.750			
0.6946	44455.58	3.6790	3.6792	0.8268	5.95	-0.04	0.750			
0.6970	44610.66	3.6760	3.6755	0.8003	5.95	-0.04	0.750			
0.6994	44761.26	3.6730	3.6731	0.7677	5.95	-0.04	0.750			
0.7017	44907.50	3.6700	3.6700	0.7410	5.95	-0.04	0.750			
0.7039	45049.78	3.6670	3.6670	0.7130	5.96	-0.03	0.750			
0.7060	45183.27	3.6640	3.6641	0.6674	5.96	-0.03	0.750			
0.7080	45309.46	3.6610	3.6609	0.6275	5.96	-0.03	0.750			
0.7098	45426.09	3.6580	3.6579	0.5882	5.96	-0.03	0.750			
0.7115	45534.14	3.6550	3.6552	0.5454	5.97	-0.02	0.750			
0.7130	45634.98	3.6520	3.6519	0.5085	5.97	-0.02	0.750			
0.7145	45728.11	3.6490	3.6490	0.4681	5.97	-0.02	0.750			
0.7158	45814.22	3.6460	3.6461	0.4314	5.98	-0.01	0.750			
0.7171	45894.12	3.6430	3.6429	0.3950	5.98	-0.01	0.750			
0.7182	45966.18	3.6400	3.6399	0.3579	5.98	-0.01	0.750			
0.7192	46029.61	3.6370	3.6371	0.3216	5.98	-0.01	0.750			
0.7201	46088.18	3.6340	3.6339	0.2890	5.99	-0.00	0.750			
0.7209	46139.62	3.6310	3.6309	0.2548	5.99	-0.00	0.750			
0.7217	46187.17	3.6280	3.6274	0.2209	5.99	-0.00	0.750			
0.7223	46226.67	3.6250	3.6252	0.1875	5.99	0.00	0.750			
0.7228	46260.46	3.6220	3.6221	0.1540	5.99	0.00	0.750			
0.7232	46287.47	3.6190	3.6190	0.1177	5.99	0.00	0.750			
0.7236	46307.49	3.6160	3.6156	0.0793	5.99	0.00	0.750			
0.7237	46315.98	3.6130	3.6051	0.0406	5.99	0.00	0.750			
0.7237	46317.74	3.6070	3.6058	-0.0314	5.99	0.00	0.749			
0.7238	46320.31	3.6100	3.6750	0.0046	5.99	0.00	0.738			
