Ah_balance (normalized)	Ah_balance (mAh)	Voltage - fit (V)	Voltage -  interpolate (V)	dQ/dV (1/V)	Temperature (°C)	Temperature - diff (°C)	Current (C)	R_DC 0ms (mOhm)	R_DC 50ms (mOhm)	R_DC 50 ms PEC (mOhm)
0.1775	11363.12	4.0810	4.0812	0.7290	7.62	1.63	0.750			
0.1798	11504.24	4.0780	4.0781	0.7264	7.61	1.62	0.750			
0.1818	11638.14	4.0750	4.0753	0.7191	7.61	1.62	0.750			
0.1840	11775.07	4.0720	4.0728	0.7277	7.60	1.61	0.750			
0.1862	11913.63	4.0690	4.0694	0.7385	7.59	1.60	0.750			
0.1884	12057.81	4.0660	4.0655	0.7485	7.59	1.60	0.750			
0.1906	12198.15	4.0630	4.0641	0.7577	7.58	1.59	0.750			
0.1930	12350.13	4.0600	4.0601	0.7981	7.57	1.58	0.750			
0.1954	12506.05	4.0570	4.0575	0.8067	7.56	1.57	0.750			
0.1979	12663.68	4.0540	4.0547	0.8203	7.56	1.57	0.750			
0.2004	12823.50	4.0510	4.0516	0.8238	7.55	1.56	0.750			
0.2029	12987.95	4.0480	4.0483	0.8329	7.54	1.55	0.750			
0.2054	13142.74	4.0450	4.0450	0.8118	7.54	1.55	0.750			
0.2077	13291.34	4.0420	4.0421	0.8034	7.53	1.54	0.750			
0.2101	13447.31	4.0390	4.0391	0.8052	7.53	1.54	0.750			
0.2126	13604.15	4.0360	4.0356	0.8124	7.52	1.53	0.750			
0.2150	13761.54	4.0330	4.0331	0.7950	7.51	1.52	0.750			
0.2174	13914.51	4.0300	4.0301	0.7780	7.50	1.51	0.750			
0.2196	14055.70	4.0270	4.0273	0.7904	7.50	1.51	0.750			
0.2219	14202.30	4.0240	4.0244	0.7995	7.49	1.50	0.750			
0.2243	14356.07	4.0210	4.0215	0.8068	7.48	1.49	0.750			
0.2268	14514.75	4.0180	4.0190	0.8305	7.48	1.49	0.750			
0.2294	14681.29	4.0150	4.0153	0.8450	7.47	1.48	0.750			
0.2321	14853.97	4.0120	4.0120	0.8550	7.46	1.47	0.750			
0.2346	15015.94	4.0090	4.0089	0.8421	7.46	1.47	0.750			
0.2370	15167.80	4.0060	4.0058	0.8267	7.45	1.46	0.750			
0.2395	15326.75	4.0030	4.0032	0.8364	7.44	1.45	0.750			
0.2421	15491.62	4.0000	3.9999	0.8344	7.43	1.44	0.750			
0.2446	15651.29	3.9970	3.9971	0.8411	7.43	1.44	0.750			
0.2471	15811.65	3.9940	3.9941	0.8422	7.42	1.43	0.750			
0.2496	15973.76	3.9910	3.9907	0.8550	7.41	1.42	0.750			
0.2522	16138.01	3.9880	3.9881	0.8606	7.40	1.41	0.750			
0.2548	16304.96	3.9850	3.9850	0.8564	7.39	1.40	0.750			
0.2574	16471.44	3.9820	3.9821	0.8655	7.39	1.40	0.750			
0.2600	16637.31	3.9790	3.9792	0.8697	7.38	1.39	0.750			
0.2626	16803.57	3.9760	3.9757	0.8746	7.37	1.38	0.750			
0.2652	16974.41	3.9730	3.9730	0.8681	7.36	1.37	0.750			
0.2678	17138.92	3.9700	3.9702	0.8778	7.35	1.36	0.750			
0.2705	17310.00	3.9670	3.9671	0.8907	7.34	1.35	0.750			
0.2732	17482.47	3.9640	3.9641	0.9039	7.34	1.35	0.750			
0.2759	17654.47	3.9610	3.9608	0.8897	7.33	1.34	0.750			
0.2786	17828.75	3.9580	3.9581	0.8706	7.32	1.33	0.750			
0.2812	17998.63	3.9550	3.9551	0.8751	7.31	1.32	0.750			
0.2838	18162.63	3.9520	3.9525	0.8721	7.30	1.31	0.750			
0.2863	18320.59	3.9490	3.9496	0.8924	7.29	1.30	0.750			
0.2890	18494.15	3.9460	3.9458	0.8985	7.28	1.29	0.750			
0.2917	18668.73	3.9430	3.9441	0.9265	7.28	1.29	0.750			
0.2945	18850.79	3.9400	3.9405	0.9432	7.27	1.28	0.750			
0.2976	19045.22	3.9370	3.9372	0.9566	7.26	1.27	0.750			
0.3005	19232.23	3.9340	3.9337	0.9706	7.25	1.26	0.750			
0.3033	19412.58	3.9310	3.9309	0.9329	7.24	1.25	0.750			
0.3060	19586.05	3.9280	3.9281	0.9459	7.23	1.24	0.750			
0.3089	19769.46	3.9250	3.9253	0.9602	7.22	1.23	0.750			
0.3118	19955.40	3.9220	3.9216	0.9591	7.21	1.22	0.750			
0.3147	20142.98	3.9190	3.9191	0.9564	7.20	1.21	0.750			
0.3176	20325.68	3.9160	3.9162	0.9713	7.19	1.20	0.750			
0.3205	20512.68	3.9130	3.9131	0.9841	7.18	1.19	0.750			
0.3235	20703.76	3.9100	3.9098	0.9854	7.17	1.18	0.750			
0.3265	20894.79	3.9070	3.9071	0.9963	7.16	1.17	0.750			
0.3295	21086.40	3.9040	3.9042	1.0199	7.15	1.16	0.750			
0.3326	21287.17	3.9010	3.9009	1.0343	7.14	1.15	0.750			
0.3358	21489.85	3.8980	3.8981	1.0427	7.13	1.14	0.750			
0.3389	21691.04	3.8950	3.8950	1.0267	7.11	1.12	0.750			
0.3420	21886.01	3.8920	3.8923	1.0415	7.10	1.11	0.750			
0.3451	22085.04	3.8890	3.8890	1.0548	7.09	1.10	0.750			
0.3482	22286.30	3.8860	3.8861	1.0720	7.08	1.09	0.750			
0.3515	22493.08	3.8830	3.8830	1.0719	7.07	1.08	0.750			
0.3548	22704.24	3.8800	3.8801	1.1014	7.06	1.07	0.750			
0.3581	22918.14	3.8770	3.8772	1.1183	7.06	1.07	0.750			
0.3615	23133.96	3.8740	3.8738	1.1366	7.05	1.06	0.750			
0.3649	23352.23	3.8710	3.8710	1.1275	7.04	1.05	0.750			
0.3682	23564.96	3.8680	3.8682	1.1485	7.02	1.03	0.750			
0.3717	23786.24	3.8650	3.8651	1.1789	7.00	1.01	0.750			
0.3753	24019.38	3.8620	3.8617	1.1954	6.99	1.00	0.750			
0.3789	24246.72	3.8590	3.8591	1.2126	6.98	0.99	0.750			
0.3826	24483.75	3.8560	3.8562	1.2237	6.97	0.98	0.750			
0.3859	24696.93	3.8530	3.8535	1.3807	6.95	0.96	0.750			
0.3902	24972.74	3.8500	3.8499	1.4385	6.94	0.95	0.750			
0.3946	25252.61	3.8470	3.8462	1.6145	6.93	0.94	0.750			
0.3994	25559.77	3.8440	3.8422	1.7212	6.91	0.92	0.750			
0.4051	25927.32	3.8410	3.8423	1.7723	6.89	0.90	0.750	0.404	0.903	
0.4105	26271.62	3.8380	3.8384	1.7052	6.87	0.88	0.750			
0.4151	26567.89	3.8350	3.8351	1.6617	6.85	0.86	0.750			
0.4198	26866.51	3.8320	3.8318	1.5534	6.83	0.84	0.750			
0.4239	27127.27	3.8290	3.8289	1.4534	6.81	0.82	0.750			
0.4282	27405.81	3.8260	3.8261	1.4736	6.80	0.81	0.750			
0.4327	27689.88	3.8230	3.8231	1.5075	6.78	0.79	0.750			
0.4372	27980.58	3.8200	3.8196	1.5347	6.77	0.78	0.750			
0.4418	28277.09	3.8170	3.8169	1.5583	6.75	0.76	0.750			
0.4466	28583.00	3.8140	3.8141	1.5882	6.73	0.74	0.750			
0.4514	28891.61	3.8110	3.8110	1.6190	6.70	0.71	0.750			
0.4563	29204.98	3.8080	3.8079	1.6424	6.69	0.70	0.750			
0.4613	29520.39	3.8050	3.8050	1.6723	6.67	0.68	0.750			
0.4664	29846.65	3.8020	3.8020	1.6951	6.65	0.66	0.750			
0.4715	30175.53	3.7990	3.7991	1.7356	6.63	0.64	0.750			
0.4768	30517.10	3.7960	3.7961	1.7667	6.61	0.62	0.750			
0.4821	30855.87	3.7930	3.7930	1.7631	6.59	0.60	0.750			
0.4874	31192.33	3.7900	3.7900	1.7748	6.57	0.58	0.750			
0.4927	31533.57	3.7870	3.7870	1.8179	6.55	0.56	0.750			
0.4982	31884.91	3.7840	3.7839	1.8246	6.53	0.54	0.750			
0.5037	32235.34	3.7810	3.7811	1.8590	6.51	0.52	0.750			
0.5094	32600.48	3.7780	3.7782	1.8776	6.48	0.49	0.750			
0.5149	32955.25	3.7750	3.7750	1.8841	6.46	0.47	0.750			
0.5205	33314.56	3.7720	3.7719	1.8868	6.44	0.45	0.750			
0.5262	33679.74	3.7690	3.7691	1.8967	6.42	0.43	0.750			
0.5320	34046.37	3.7660	3.7662	1.9311	6.40	0.41	0.750			
0.5379	34424.53	3.7630	3.7632	1.9371	6.38	0.39	0.750			
0.5436	34791.07	3.7600	3.7600	1.9494	6.35	0.36	0.750			
0.5495	35165.37	3.7570	3.7569	1.9943	6.33	0.34	0.750			
0.5555	35551.56	3.7540	3.7539	2.0244	6.31	0.32	0.750			
0.5615	35935.24	3.7510	3.7511	2.0875	6.29	0.30	0.750			
0.5680	36351.46	3.7480	3.7479	2.1214	6.27	0.28	0.750			
0.5744	36761.14	3.7450	3.7451	2.1479	6.25	0.26	0.750			
0.5809	37177.74	3.7420	3.7416	2.2037	6.22	0.23	0.750			
0.5875	37602.03	3.7390	3.7390	2.2644	6.19	0.20	0.750			
0.5944	38041.41	3.7360	3.7361	2.3423	6.17	0.18	0.750			
0.6016	38504.98	3.7330	3.7330	2.4000	6.14	0.15	0.750			
0.6089	38969.35	3.7300	3.7300	2.4102	6.12	0.13	0.750			
0.6163	39440.82	3.7270	3.7270	2.3729	6.10	0.11	0.750			
0.6233	39892.25	3.7240	3.7240	2.3257	6.07	0.08	0.750			
0.6302	40332.75	3.7210	3.7209	2.2012	6.06	0.07	0.750			
0.6366	40745.28	3.7180	3.7180	2.0564	6.05	0.06	0.750			
0.6428	41139.82	3.7150	3.7148	1.8724	6.03	0.04	0.750			
0.6480	41473.95	3.7120	3.7120	1.6374	6.02	0.03	0.750			
0.6524	41753.32	3.7090	3.7093	1.4407	6.01	0.02	0.750			
0.6562	41995.14	3.7060	3.7057	1.2676	6.00	0.01	0.750			
0.6596	42216.94	3.7030	3.7028	1.1749	5.99	0.00	0.750			
0.6628	42417.12	3.7000	3.7000	1.0788	5.99	-0.00	0.750			
0.6659	42620.33	3.6970	3.6971	1.0332	5.99	-0.00	0.750			
0.6691	42819.64	3.6940	3.6941	1.0001	5.98	-0.01	0.750			
0.6720	43005.29	3.6910	3.6910	0.9667	5.98	-0.01	0.750			
0.6748	43186.01	3.6880	3.6877	0.9228	5.98	-0.01	0.750			
0.6775	43360.26	3.6850	3.6849	0.8862	5.98	-0.01	0.750			
0.6801	43527.96	3.6820	3.6822	0.8603	5.98	-0.01	0.750			
0.6827	43692.97	3.6790	3.6788	0.8301	5.97	-0.02	0.750			
0.6851	43847.26	3.6760	3.6759	0.7929	5.97	-0.02	0.750			
0.6874	43994.76	3.6730	3.6729	0.7567	5.97	-0.02	0.750			
0.6896	44135.69	3.6700	3.6701	0.7214	5.97	-0.02	0.750			
0.6918	44275.85	3.6670	3.6669	0.6991	5.97	-0.02	0.750			
0.6939	44406.46	3.6640	3.6641	0.6617	5.97	-0.02	0.750			
0.6957	44527.79	3.6610	3.6610	0.6295	5.97	-0.02	0.750			
0.6976	44647.85	3.6580	3.6581	0.6023	5.97	-0.02	0.750			
0.6994	44760.78	3.6550	3.6548	0.5688	5.97	-0.02	0.750			
0.7011	44867.31	3.6520	3.6519	0.5371	5.97	-0.02	0.750			
0.7026	44966.88	3.6490	3.6492	0.5075	5.97	-0.02	0.750			
0.7041	45060.95	3.6460	3.6460	0.4765	5.98	-0.01	0.750			
0.7055	45150.21	3.6430	3.6428	0.4455	5.98	-0.01	0.750			
0.7067	45231.99	3.6400	3.6399	0.4099	5.98	-0.01	0.750			
0.7079	45308.48	3.6370	3.6371	0.3770	5.98	-0.01	0.750			
0.7090	45378.14	3.6340	3.6340	0.3395	5.98	-0.01	0.750			
0.7100	45440.26	3.6310	3.6310	0.3028	5.99	-0.00	0.750			
0.7109	45494.81	3.6280	3.6279	0.2612	5.99	-0.00	0.750			
0.7116	45540.96	3.6250	3.6250	0.2207	5.99	-0.00	0.750			
0.7122	45579.70	3.6220	3.6218	0.1804	5.99	-0.00	0.750			
0.7127	45611.52	3.6190	3.6192	0.1403	5.99	0.00	0.750			
0.7130	45634.86	3.6160	3.6164	0.0969	5.99	0.00	0.750			
0.7133	45649.18	3.6130	3.6137	0.0523	5.99	0.00	0.750			
0.7134	45655.65	3.6100	3.6108	-0.0055	5.99	0.00	0.750			
