Ah_balance (normalized)	Ah_balance (mAh)	Voltage - fit (V)	Voltage -  interpolate (V)	dQ/dV (1/V)	Temperature (°C)	Temperature - diff (°C)	Current (C)	R_DC 0ms (mOhm)	R_DC 50ms (mOhm)	R_DC 50 ms PEC (mOhm)
0.1800	11519.51	4.0820	4.0820	0.7605	7.04	1.07	0.750			
0.1823	11666.48	4.0790	4.0791	0.7717	7.04	1.07	0.750			
0.1847	11818.56	4.0760	4.0759	0.7834	7.03	1.06	0.750			
0.1870	11968.90	4.0730	4.0729	0.7835	7.03	1.06	0.750			
0.1894	12121.07	4.0700	4.0701	0.7796	7.02	1.05	0.750			
0.1917	12269.78	4.0670	4.0670	0.7776	7.02	1.05	0.750			
0.1940	12417.43	4.0640	4.0640	0.7857	7.02	1.05	0.750			
0.1964	12567.46	4.0610	4.0610	0.7876	7.01	1.04	0.750			
0.1987	12717.88	4.0580	4.0578	0.7933	7.01	1.04	0.750			
0.2011	12872.78	4.0550	4.0550	0.8025	7.00	1.03	0.750			
0.2036	13027.53	4.0520	4.0521	0.8064	6.99	1.02	0.750			
0.2060	13183.70	4.0490	4.0491	0.8119	6.99	1.02	0.750			
0.2084	13339.26	4.0460	4.0460	0.8119	6.98	1.01	0.750			
0.2109	13495.24	4.0430	4.0428	0.8145	6.97	1.00	0.750			
0.2133	13652.34	4.0400	4.0400	0.8194	6.97	1.00	0.750			
0.2158	13810.15	4.0370	4.0370	0.8147	6.96	0.99	0.750			
0.2182	13966.99	4.0340	4.0341	0.8211	6.96	0.99	0.750			
0.2207	14123.20	4.0310	4.0310	0.8171	6.95	0.98	0.750			
0.2231	14280.95	4.0280	4.0278	0.8227	6.95	0.98	0.750			
0.2256	14438.56	4.0250	4.0251	0.8251	6.94	0.97	0.750			
0.2281	14597.95	4.0220	4.0220	0.8232	6.93	0.96	0.750			
0.2306	14756.38	4.0190	4.0190	0.8305	6.93	0.96	0.750			
0.2331	14915.62	4.0160	4.0161	0.8323	6.92	0.95	0.750			
0.2355	15075.16	4.0130	4.0128	0.8352	6.91	0.94	0.750			
0.2381	15237.40	4.0100	4.0101	0.8382	6.91	0.94	0.750			
0.2406	15398.24	4.0070	4.0070	0.8405	6.91	0.94	0.750			
0.2431	15561.03	4.0040	4.0040	0.8441	6.91	0.94	0.750			
0.2457	15721.88	4.0010	4.0010	0.8445	6.91	0.94	0.750			
0.2482	15883.46	3.9980	3.9980	0.8479	6.91	0.94	0.750			
0.2507	16047.20	3.9950	3.9950	0.8515	6.90	0.93	0.750			
0.2533	16210.65	3.9920	3.9920	0.8595	6.89	0.92	0.750			
0.2559	16378.10	3.9890	3.9890	0.8635	6.89	0.92	0.750			
0.2585	16543.76	3.9860	3.9860	0.8633	6.88	0.91	0.750			
0.2611	16709.82	3.9830	3.9829	0.8680	6.87	0.90	0.750			
0.2637	16876.47	3.9800	3.9800	0.8700	6.87	0.90	0.750			
0.2663	17043.44	3.9770	3.9770	0.8728	6.86	0.89	0.750			
0.2689	17211.23	3.9740	3.9740	0.8761	6.86	0.89	0.750			
0.2715	17379.01	3.9710	3.9710	0.8776	6.85	0.88	0.750			
0.2742	17548.89	3.9680	3.9680	0.8893	6.85	0.88	0.750			
0.2769	17721.69	3.9650	3.9649	0.8852	6.84	0.87	0.750			
0.2795	17889.79	3.9620	3.9620	0.8927	6.83	0.86	0.750			
0.2822	18062.45	3.9590	3.9592	0.9020	6.82	0.85	0.750			
0.2849	18235.90	3.9560	3.9559	0.9077	6.81	0.84	0.750			
0.2877	18412.08	3.9530	3.9530	0.9086	6.81	0.84	0.750			
0.2904	18586.17	3.9500	3.9501	0.9143	6.80	0.83	0.750			
0.2931	18761.21	3.9470	3.9470	0.9196	6.80	0.83	0.750			
0.2960	18941.03	3.9440	3.9440	0.9300	6.79	0.82	0.750			
0.2987	19116.86	3.9410	3.9409	0.9304	6.79	0.82	0.750			
0.3015	19297.42	3.9380	3.9380	0.9315	6.78	0.81	0.750			
0.3043	19476.79	3.9350	3.9351	0.9452	6.77	0.80	0.750			
0.3072	19659.68	3.9320	3.9321	0.9532	6.76	0.79	0.750			
0.3100	19842.29	3.9290	3.9289	0.9592	6.75	0.78	0.750			
0.3129	20027.87	3.9260	3.9261	0.9653	6.74	0.77	0.750			
0.3158	20213.79	3.9230	3.9230	0.9722	6.74	0.77	0.750			
0.3188	20401.26	3.9200	3.9200	0.9824	6.73	0.76	0.750			
0.3217	20589.90	3.9170	3.9171	0.9880	6.72	0.75	0.750			
0.3247	20781.04	3.9140	3.9140	0.9951	6.71	0.74	0.750			
0.3277	20974.05	3.9110	3.9110	1.0054	6.70	0.73	0.750			
0.3308	21173.40	3.9080	3.9079	0.9869	6.69	0.72	0.750			
0.3338	21366.03	3.9050	3.9051	0.9738	6.68	0.71	0.750			
0.3367	21548.20	3.9020	3.9022	0.9560	6.67	0.70	0.750			
0.3394	21719.64	3.8990	3.8994	0.9608	6.66	0.69	0.750			
0.3422	21899.40	3.8960	3.8957	0.9874	6.66	0.69	0.750			
0.3451	22088.41	3.8930	3.8929	1.0201	6.66	0.69	0.750			
0.3482	22287.51	3.8900	3.8897	1.0533	6.65	0.68	0.750			
0.3517	22506.17	3.8870	3.8872	1.0808	6.64	0.67	0.750			
0.3549	22712.37	3.8840	3.8841	1.0910	6.64	0.67	0.750			
0.3581	22919.55	3.8810	3.8812	1.1078	6.63	0.66	0.750			
0.3615	23133.62	3.8780	3.8776	1.1118	6.63	0.66	0.750			
0.3647	23343.56	3.8750	3.8751	1.1281	6.62	0.65	0.750			
0.3682	23562.34	3.8720	3.8722	1.1625	6.61	0.64	0.750			
0.3718	23793.50	3.8690	3.8690	1.1888	6.59	0.62	0.750			
0.3754	24023.48	3.8660	3.8660	1.1742	6.59	0.62	0.750			
0.3789	24249.70	3.8630	3.8631	1.1875	6.58	0.61	0.750			
0.3825	24478.16	3.8600	3.8603	1.2062	6.58	0.61	0.750			
0.3861	24711.61	3.8570	3.8569	1.2135	6.57	0.60	0.750			
0.3898	24944.94	3.8540	3.8539	1.2309	6.56	0.59	0.750			
0.3934	25180.33	3.8510	3.8511	1.2517	6.55	0.58	0.750			
0.3973	25427.91	3.8480	3.8478	1.2695	6.53	0.56	0.750			
0.4011	25671.74	3.8450	3.8450	1.3094	6.52	0.55	0.750			
0.4049	25916.62	3.8420	3.8421	1.3489	6.51	0.54	0.750			
0.4091	26183.34	3.8390	3.8390	1.3774	6.50	0.53	0.750			
0.4133	26453.57	3.8360	3.8363	1.4115	6.48	0.51	0.750	0.380	0.943	
0.4176	26728.49	3.8330	3.8333	1.4466	6.47	0.50	0.750			
0.4221	27012.34	3.8300	3.8300	1.4634	6.45	0.48	0.750			
0.4265	27297.13	3.8270	3.8267	1.4835	6.44	0.47	0.750			
0.4308	27572.35	3.8240	3.8242	1.4996	6.44	0.47	0.750			
0.4354	27868.57	3.8210	3.8209	1.5276	6.43	0.46	0.750			
0.4401	28165.10	3.8180	3.8178	1.5638	6.41	0.44	0.750			
0.4448	28466.26	3.8150	3.8152	1.6122	6.39	0.42	0.750			
0.4497	28782.30	3.8120	3.8119	1.6486	6.38	0.41	0.750			
0.4548	29106.31	3.8090	3.8090	1.6935	6.36	0.39	0.750			
0.4598	29428.18	3.8060	3.8062	1.7087	6.35	0.38	0.750			
0.4651	29763.47	3.8030	3.8031	1.7427	6.34	0.37	0.750			
0.4703	30099.59	3.8000	3.8002	1.7605	6.32	0.35	0.750			
0.4757	30444.07	3.7970	3.7971	1.8202	6.30	0.33	0.750			
0.4811	30787.60	3.7940	3.7941	1.8376	6.29	0.32	0.750			
0.4866	31144.39	3.7910	3.7907	1.8697	6.27	0.30	0.750			
0.4922	31503.87	3.7880	3.7878	1.8981	6.25	0.28	0.750			
0.4981	31880.88	3.7850	3.7846	1.9099	6.24	0.27	0.750			
0.5040	32254.22	3.7820	3.7819	1.9101	6.23	0.26	0.750			
0.5097	32617.85	3.7790	3.7789	1.9401	6.21	0.24	0.750			
0.5157	33003.97	3.7760	3.7760	1.9827	6.19	0.22	0.750			
0.5216	33382.40	3.7730	3.7729	2.0208	6.18	0.21	0.750			
0.5278	33780.38	3.7700	3.7700	2.0471	6.16	0.19	0.750			
0.5338	34161.54	3.7670	3.7670	2.0927	6.14	0.17	0.750			
0.5401	34567.14	3.7640	3.7639	2.1373	6.12	0.15	0.750			
0.5467	34987.03	3.7610	3.7610	2.1479	6.10	0.13	0.750			
0.5532	35406.82	3.7580	3.7581	2.2029	6.07	0.10	0.750			
0.5596	35816.83	3.7550	3.7549	2.2295	6.05	0.08	0.750			
0.5666	36262.92	3.7520	3.7524	2.2721	6.04	0.07	0.750			
0.5736	36708.72	3.7490	3.7490	2.2654	6.03	0.06	0.750			
0.5802	37130.44	3.7460	3.7457	2.2254	6.01	0.04	0.750			
0.5869	37562.79	3.7430	3.7429	2.3463	6.00	0.03	0.750			
0.5941	38019.25	3.7400	3.7400	2.4887	5.98	0.01	0.750			
0.6017	38508.04	3.7370	3.7370	2.5391	5.96	-0.01	0.750			
0.6095	39010.14	3.7340	3.7341	2.6590	5.95	-0.02	0.750			
0.6174	39513.78	3.7310	3.7309	2.6569	5.93	-0.04	0.750			
0.6255	40031.00	3.7280	3.7281	2.6645	5.92	-0.05	0.750			
0.6335	40546.74	3.7250	3.7249	2.6592	5.91	-0.06	0.750			
0.6412	41039.55	3.7220	3.7220	2.6334	5.90	-0.07	0.750			
0.6494	41559.75	3.7190	3.7189	2.6047	5.89	-0.08	0.750			
0.6572	42063.89	3.7160	3.7163	2.4496	5.88	-0.09	0.750			
0.6640	42498.77	3.7130	3.7130	2.2133	5.88	-0.09	0.750			
0.6704	42905.63	3.7100	3.7094	1.9762	5.87	-0.10	0.750			
0.6760	43265.68	3.7070	3.7070	1.7504	5.87	-0.10	0.750			
0.6810	43585.70	3.7040	3.7043	1.5786	5.88	-0.09	0.750			
0.6853	43862.26	3.7010	3.7008	1.3809	5.89	-0.08	0.750			
0.6892	44108.71	3.6980	3.6981	1.2210	5.90	-0.07	0.750			
0.6924	44312.88	3.6950	3.6950	1.0908	5.90	-0.07	0.750			
0.6954	44506.67	3.6920	3.6921	1.0033	5.91	-0.06	0.750			
0.6983	44689.73	3.6890	3.6884	0.9400	5.91	-0.06	0.750			
0.7009	44859.58	3.6860	3.6861	0.8819	5.91	-0.06	0.750			
0.7035	45023.41	3.6830	3.6831	0.8347	5.92	-0.05	0.750			
0.7059	45180.03	3.6800	3.6800	0.7994	5.92	-0.05	0.750			
0.7082	45326.19	3.6770	3.6770	0.7522	5.93	-0.04	0.750			
0.7105	45469.86	3.6740	3.6738	0.7171	5.93	-0.04	0.750			
0.7126	45604.91	3.6710	3.6711	0.6770	5.94	-0.03	0.750			
0.7146	45731.89	3.6680	3.6680	0.6374	5.94	-0.03	0.750			
0.7164	45851.10	3.6650	3.6650	0.5949	5.95	-0.02	0.750			
0.7181	45960.97	3.6620	3.6619	0.5425	5.95	-0.02	0.750			
0.7197	46060.24	3.6590	3.6590	0.5003	5.96	-0.01	0.750			
0.7211	46151.01	3.6560	3.6561	0.4575	5.96	-0.01	0.750			
0.7224	46235.03	3.6530	3.6532	0.4203	5.97	-0.00	0.750			
0.7236	46311.67	3.6500	3.6498	0.3809	5.97	0.00	0.750			
0.7247	46380.15	3.6470	3.6470	0.3425	5.97	0.00	0.750			
0.7257	46442.69	3.6440	3.6440	0.3084	5.98	0.01	0.750			
0.7266	46499.54	3.6410	3.6410	0.2747	5.98	0.01	0.750			
0.7273	46547.96	3.6380	3.6378	0.2351	5.98	0.01	0.750			
0.7280	46590.00	3.6350	3.6350	0.1994	5.99	0.02	0.750			
0.7285	46624.92	3.6320	3.6321	0.1631	5.99	0.02	0.750			
0.7290	46653.01	3.6290	3.6293	0.1264	5.99	0.02	0.750			
0.7293	46674.94	3.6260	3.6269	0.0880	5.99	0.02	0.750			
0.7295	46688.03	3.6230	3.6239	0.0480	5.99	0.02	0.750			
0.7296	46693.41	3.6200	3.6223	0.0081	5.99	0.02	0.750			
