Ah_balance (normalized)	Ah_balance (mAh)	Voltage - fit (V)	Voltage -  interpolate (V)	dQ/dV (1/V)	Temperature (°C)	Temperature - diff (°C)	Current (C)	R_DC 0ms (mOhm)	R_DC 50ms (mOhm)	R_DC 50 ms PEC (mOhm)
0.1792	11470.70	4.0800	4.0800	0.7807	7.54	1.57	0.750			
0.1816	11619.73	4.0770	4.0771	0.7792	7.53	1.56	0.750			
0.1839	11770.53	4.0740	4.0740	0.7894	7.53	1.56	0.750			
0.1863	11924.06	4.0710	4.0709	0.7941	7.53	1.56	0.750			
0.1887	12076.58	4.0680	4.0680	0.7978	7.53	1.56	0.750			
0.1911	12232.32	4.0650	4.0651	0.7876	7.53	1.56	0.750			
0.1935	12384.11	4.0620	4.0620	0.7929	7.52	1.55	0.750			
0.1959	12534.58	4.0590	4.0590	0.7976	7.52	1.55	0.750			
0.1982	12685.57	4.0560	4.0560	0.7967	7.52	1.55	0.750			
0.2006	12838.74	4.0530	4.0531	0.8033	7.52	1.55	0.750			
0.2031	12995.73	4.0500	4.0501	0.8081	7.51	1.54	0.750			
0.2055	13151.07	4.0470	4.0470	0.8158	7.50	1.53	0.750			
0.2080	13310.55	4.0440	4.0440	0.8246	7.50	1.53	0.750			
0.2104	13466.37	4.0410	4.0409	0.8217	7.49	1.52	0.750			
0.2129	13624.73	4.0380	4.0381	0.8220	7.49	1.52	0.750			
0.2154	13785.46	4.0350	4.0350	0.8192	7.48	1.51	0.750			
0.2178	13941.61	4.0320	4.0321	0.8238	7.47	1.50	0.750			
0.2203	14099.76	4.0290	4.0290	0.8282	7.46	1.49	0.750			
0.2228	14257.41	4.0260	4.0260	0.8298	7.45	1.48	0.750			
0.2253	14417.07	4.0230	4.0232	0.8354	7.45	1.48	0.750			
0.2278	14578.63	4.0200	4.0200	0.8381	7.44	1.47	0.750			
0.2303	14740.43	4.0170	4.0170	0.8445	7.44	1.47	0.750			
0.2329	14904.73	4.0140	4.0140	0.8452	7.44	1.47	0.750			
0.2354	15065.67	4.0110	4.0110	0.8441	7.43	1.46	0.750			
0.2379	15227.80	4.0080	4.0080	0.8449	7.42	1.45	0.750			
0.2405	15390.03	4.0050	4.0050	0.8450	7.42	1.45	0.750			
0.2430	15549.37	4.0020	4.0020	0.8405	7.41	1.44	0.750			
0.2455	15709.16	3.9990	3.9991	0.8473	7.40	1.43	0.750			
0.2480	15871.03	3.9960	3.9960	0.8508	7.39	1.42	0.750			
0.2506	16036.29	3.9930	3.9931	0.8601	7.39	1.42	0.750			
0.2532	16202.91	3.9900	3.9901	0.8627	7.38	1.41	0.750			
0.2558	16370.63	3.9870	3.9872	0.8687	7.38	1.41	0.750			
0.2585	16541.60	3.9840	3.9839	0.8815	7.37	1.40	0.750			
0.2610	16704.65	3.9810	3.9809	0.8664	7.37	1.40	0.750			
0.2636	16871.70	3.9780	3.9780	0.8694	7.36	1.39	0.750			
0.2662	17039.37	3.9750	3.9750	0.8749	7.35	1.38	0.750			
0.2689	17207.91	3.9720	3.9720	0.8843	7.35	1.38	0.750			
0.2715	17378.51	3.9690	3.9690	0.8889	7.34	1.37	0.750			
0.2742	17548.12	3.9660	3.9660	0.8919	7.33	1.36	0.750			
0.2769	17722.75	3.9630	3.9630	0.8871	7.33	1.36	0.750			
0.2796	17892.46	3.9600	3.9601	0.8957	7.32	1.35	0.750			
0.2822	18063.08	3.9570	3.9570	0.9010	7.32	1.35	0.750			
0.2849	18235.97	3.9540	3.9542	0.9065	7.31	1.34	0.750			
0.2877	18410.43	3.9510	3.9510	0.9125	7.31	1.34	0.750			
0.2904	18587.25	3.9480	3.9481	0.9187	7.30	1.33	0.750			
0.2932	18764.12	3.9450	3.9450	0.9293	7.29	1.32	0.750			
0.2960	18943.12	3.9420	3.9421	0.9354	7.28	1.31	0.750			
0.2988	19123.54	3.9390	3.9387	0.9374	7.27	1.30	0.750			
0.3017	19306.11	3.9360	3.9361	0.9351	7.26	1.29	0.750			
0.3045	19485.76	3.9330	3.9331	0.9448	7.26	1.29	0.750			
0.3073	19667.66	3.9300	3.9300	0.9549	7.25	1.28	0.750			
0.3101	19849.01	3.9270	3.9270	0.9573	7.24	1.27	0.750			
0.3130	20034.76	3.9240	3.9241	0.9657	7.23	1.26	0.750			
0.3160	20222.23	3.9210	3.9211	0.9759	7.23	1.26	0.750			
0.3189	20410.69	3.9180	3.9180	0.9863	7.22	1.25	0.750			
0.3219	20603.66	3.9150	3.9151	0.9946	7.21	1.24	0.750			
0.3249	20792.53	3.9120	3.9120	0.9934	7.20	1.23	0.750			
0.3279	20983.44	3.9090	3.9090	1.0025	7.18	1.21	0.750			
0.3309	21175.56	3.9060	3.9061	1.0145	7.17	1.20	0.750			
0.3339	21371.35	3.9030	3.9030	1.0283	7.16	1.19	0.750			
0.3371	21572.61	3.9000	3.8999	1.0340	7.15	1.18	0.750			
0.3402	21770.65	3.8970	3.8970	1.0466	7.14	1.17	0.750			
0.3433	21973.20	3.8940	3.8941	1.0619	7.14	1.17	0.750			
0.3465	22177.74	3.8910	3.8911	1.0753	7.13	1.16	0.750			
0.3498	22386.88	3.8880	3.8879	1.0778	7.13	1.16	0.750			
0.3530	22592.56	3.8850	3.8850	1.0985	7.11	1.14	0.750			
0.3563	22805.42	3.8820	3.8821	1.1161	7.09	1.12	0.750			
0.3597	23022.30	3.8790	3.8790	1.1332	7.08	1.11	0.750			
0.3631	23241.26	3.8760	3.8761	1.1383	7.07	1.10	0.750			
0.3666	23461.99	3.8730	3.8732	1.1505	7.06	1.09	0.750			
0.3701	23683.30	3.8700	3.8700	1.1650	7.05	1.08	0.750			
0.3736	23909.65	3.8670	3.8669	1.1781	7.04	1.07	0.750			
0.3771	24132.11	3.8640	3.8641	1.1833	7.03	1.06	0.750			
0.3806	24360.70	3.8610	3.8610	1.2105	7.01	1.04	0.750			
0.3844	24599.96	3.8580	3.8580	1.2249	7.00	1.03	0.750			
0.3881	24836.62	3.8550	3.8550	1.2430	6.98	1.01	0.750			
0.3918	25075.96	3.8520	3.8520	1.2670	6.97	1.00	0.750			
0.3956	25321.04	3.8490	3.8491	1.2830	6.96	0.99	0.750			
0.3995	25569.18	3.8460	3.8458	1.3026	6.95	0.98	0.750			
0.4034	25816.83	3.8430	3.8431	1.3451	6.94	0.97	0.750			
0.4075	26079.42	3.8400	3.8400	1.3722	6.92	0.95	0.750			
0.4117	26347.76	3.8370	3.8369	1.4190	6.91	0.94	0.750	0.422	0.958	
0.4160	26623.54	3.8340	3.8342	1.4536	6.89	0.92	0.750			
0.4205	26914.23	3.8310	3.8311	1.4738	6.87	0.90	0.750			
0.4250	27199.33	3.8280	3.8281	1.4954	6.85	0.88	0.750			
0.4294	27480.27	3.8250	3.8252	1.4982	6.83	0.86	0.750			
0.4339	27771.98	3.8220	3.8221	1.5263	6.82	0.85	0.750			
0.4385	28066.65	3.8190	3.8190	1.5741	6.80	0.83	0.750			
0.4433	28368.73	3.8160	3.8159	1.5944	6.78	0.81	0.750			
0.4481	28680.53	3.8130	3.8129	1.6402	6.75	0.78	0.750			
0.4532	29002.92	3.8100	3.8101	1.6561	6.73	0.76	0.750			
0.4582	29322.73	3.8070	3.8070	1.7006	6.71	0.74	0.750			
0.4633	29650.18	3.8040	3.8040	1.7133	6.69	0.72	0.750			
0.4685	29983.49	3.8010	3.8009	1.7569	6.67	0.70	0.750			
0.4739	30327.72	3.7980	3.7979	1.8067	6.65	0.68	0.750			
0.4793	30674.95	3.7950	3.7951	1.8383	6.62	0.65	0.750			
0.4850	31036.86	3.7920	3.7920	1.8707	6.60	0.63	0.750			
0.4907	31403.56	3.7890	3.7890	1.9060	6.57	0.60	0.750			
0.4964	31770.78	3.7860	3.7861	1.9245	6.54	0.57	0.750			
0.5022	32142.46	3.7830	3.7830	1.9835	6.52	0.55	0.750			
0.5083	32530.01	3.7800	3.7801	1.9925	6.50	0.53	0.750			
0.5143	32916.15	3.7770	3.7771	2.0271	6.48	0.51	0.750			
0.5204	33306.43	3.7740	3.7736	2.0633	6.46	0.49	0.750			
0.5267	33706.77	3.7710	3.7710	2.0841	6.44	0.47	0.750			
0.5329	34106.92	3.7680	3.7682	2.0969	6.41	0.44	0.750			
0.5392	34506.88	3.7650	3.7649	2.1599	6.38	0.41	0.750			
0.5458	34930.81	3.7620	3.7620	2.1782	6.36	0.39	0.750			
0.5525	35358.27	3.7590	3.7590	2.2065	6.33	0.36	0.750			
0.5591	35780.36	3.7560	3.7559	2.2559	6.28	0.31	0.750			
0.5659	36218.02	3.7530	3.7529	2.3079	6.26	0.29	0.750			
0.5733	36689.03	3.7500	3.7500	2.3082	6.23	0.26	0.750			
0.5800	37122.33	3.7470	3.7470	2.2281	6.21	0.24	0.750			
0.5860	37501.25	3.7440	3.7439	2.1347	6.19	0.22	0.750			
0.5922	37898.98	3.7410	3.7411	2.2313	6.16	0.19	0.750			
0.5988	38325.76	3.7380	3.7381	2.5003	6.13	0.16	0.750			
0.6074	38876.01	3.7350	3.7349	2.7209	6.10	0.13	0.750			
0.6152	39373.44	3.7320	3.7320	2.7187	6.08	0.11	0.750			
0.6235	39905.31	3.7290	3.7287	2.7010	6.05	0.08	0.750			
0.6316	40424.39	3.7260	3.7260	2.7691	6.02	0.05	0.750			
0.6399	40953.27	3.7230	3.7228	2.8020	6.00	0.03	0.750			
0.6488	41520.89	3.7200	3.7198	2.7962	5.99	0.02	0.750			
0.6571	42055.89	3.7170	3.7172	2.6470	5.96	-0.01	0.750			
0.6645	42526.35	3.7140	3.7137	2.3815	5.95	-0.02	0.750			
0.6712	42954.65	3.7110	3.7108	2.1685	5.95	-0.02	0.750			
0.6775	43363.15	3.7080	3.7084	2.0040	5.94	-0.03	0.750			
0.6832	43722.87	3.7050	3.7054	1.7673	5.94	-0.03	0.750			
0.6883	44052.48	3.7020	3.7018	1.5833	5.93	-0.04	0.750			
0.6925	44322.84	3.6990	3.6991	1.3870	5.93	-0.04	0.750			
0.6963	44562.29	3.6960	3.6961	1.2143	5.93	-0.04	0.750			
0.6995	44771.18	3.6930	3.6930	1.0942	5.93	-0.04	0.750			
0.7025	44961.64	3.6900	3.6901	0.9716	5.93	-0.04	0.750			
0.7053	45136.81	3.6870	3.6870	0.9070	5.94	-0.03	0.750			
0.7078	45298.20	3.6840	3.6841	0.8598	5.94	-0.03	0.750			
0.7103	45456.69	3.6810	3.6810	0.8110	5.94	-0.03	0.750			
0.7126	45609.06	3.6780	3.6781	0.7719	5.94	-0.03	0.750			
0.7150	45757.39	3.6750	3.6751	0.7375	5.95	-0.02	0.750			
0.7171	45896.42	3.6720	3.6721	0.6860	5.95	-0.02	0.750			
0.7192	46027.22	3.6690	3.6690	0.6413	5.96	-0.01	0.750			
0.7210	46142.42	3.6660	3.6660	0.5835	5.96	-0.01	0.750			
0.7226	46247.11	3.6630	3.6629	0.5364	5.97	-0.00	0.750			
0.7241	46344.90	3.6600	3.6599	0.4924	5.97	0.00	0.750			
0.7255	46434.53	3.6570	3.6570	0.4502	5.97	0.00	0.750			
0.7268	46517.84	3.6540	3.6540	0.4113	5.98	0.01	0.750			
0.7280	46593.21	3.6510	3.6510	0.3732	5.98	0.01	0.750			
0.7291	46660.77	3.6480	3.6481	0.3333	5.98	0.01	0.750			
0.7300	46719.95	3.6450	3.6449	0.2952	5.98	0.01	0.750			
0.7308	46772.86	3.6420	3.6418	0.2572	5.99	0.02	0.750			
0.7315	46818.85	3.6390	3.6390	0.2214	5.99	0.02	0.750			
0.7322	46857.66	3.6360	3.6359	0.1844	5.99	0.02	0.750			
0.7327	46890.60	3.6330	3.6331	0.1499	5.99	0.02	0.750			
0.7331	46916.07	3.6300	3.6303	0.1129	5.99	0.02	0.750			
0.7333	46933.61	3.6270	3.6275	0.0752	5.99	0.02	0.750			
0.7335	46945.32	3.6180	3.6220	-0.0442	5.99	0.02	0.750			
0.7335	46946.84	3.6240	3.5463	0.0363	5.99	0.02	0.747			
0.7336	46949.94	3.6210	2.9508	-0.0040	5.99	0.02	0.735			
