Ah_balance (normalized)	Ah_balance (mAh)	Voltage - fit (V)	Voltage -  interpolate (V)	dQ/dV (1/V)	Temperature (°C)	Temperature - diff (°C)	Current (C)	R_DC 0ms (mOhm)	R_DC 50ms (mOhm)	R_DC 50 ms PEC (mOhm)
0.0913	5842.38	4.0030	4.0023	-0.0491	6.00	0.01	-0.750			
0.0915	5855.31	4.0000	3.9995	-0.0810	6.00	0.01	-0.750			
0.0918	5873.61	3.9970	3.9968	-0.1097	6.00	0.01	-0.750			
0.0922	5897.66	3.9940	3.9940	-0.1377	6.00	0.01	-0.750			
0.0926	5927.12	3.9910	3.9910	-0.1643	6.00	0.01	-0.750			
0.0931	5961.07	3.9880	3.9880	-0.1930	6.00	0.01	-0.750			
0.0938	6000.94	3.9850	3.9851	-0.2165	6.00	0.01	-0.750			
0.0945	6046.63	3.9820	3.9820	-0.2389	5.99	0.00	-0.750			
0.0952	6094.88	3.9790	3.9790	-0.2617	5.99	0.00	-0.750			
0.0961	6147.32	3.9760	3.9764	-0.2835	5.99	0.00	-0.750			
0.0969	6203.83	3.9730	3.9729	-0.3034	5.99	-0.00	-0.750			
0.0979	6263.41	3.9700	3.9700	-0.3266	5.99	-0.00	-0.750			
0.0989	6328.03	3.9670	3.9670	-0.3482	5.98	-0.01	-0.750			
0.1000	6396.84	3.9640	3.9640	-0.3728	5.98	-0.01	-0.750			
0.1011	6470.81	3.9610	3.9609	-0.3976	5.98	-0.01	-0.750			
0.1023	6550.06	3.9580	3.9581	-0.4179	5.98	-0.01	-0.750			
0.1036	6632.89	3.9550	3.9550	-0.4391	5.97	-0.02	-0.750			
0.1050	6720.09	3.9520	3.9522	-0.4580	5.97	-0.02	-0.750			
0.1064	6809.34	3.9490	3.9489	-0.4735	5.97	-0.02	-0.750			
0.1078	6901.17	3.9460	3.9460	-0.4918	5.96	-0.03	-0.750			
0.1093	6996.74	3.9430	3.9430	-0.5073	5.96	-0.03	-0.750			
0.1109	7095.97	3.9400	3.9400	-0.5235	5.96	-0.03	-0.750			
0.1125	7199.52	3.9370	3.9370	-0.5432	5.96	-0.03	-0.750			
0.1141	7304.33	3.9340	3.9341	-0.5575	5.96	-0.03	-0.750			
0.1158	7413.77	3.9310	3.9310	-0.5735	5.96	-0.03	-0.750			
0.1176	7525.84	3.9280	3.9280	-0.5851	5.96	-0.03	-0.750			
0.1194	7640.41	3.9250	3.9248	-0.5912	5.96	-0.03	-0.750			
0.1212	7754.20	3.9220	3.9225	-0.6073	5.96	-0.03	-0.750			
0.1230	7871.98	3.9190	3.9191	-0.6163	5.96	-0.03	-0.750			
0.1249	7991.66	3.9160	3.9158	-0.6245	5.96	-0.03	-0.750			
0.1268	8112.16	3.9130	3.9130	-0.6371	5.96	-0.03	-0.750			
0.1287	8235.19	3.9100	3.9101	-0.6465	5.97	-0.02	-0.750			
0.1306	8361.22	3.9070	3.9070	-0.6536	5.97	-0.02	-0.750			
0.1326	8489.48	3.9040	3.9038	-0.6587	5.97	-0.02	-0.750			
0.1346	8614.16	3.9010	3.9011	-0.6578	5.97	-0.02	-0.750			
0.1366	8741.31	3.8980	3.8980	-0.6673	5.97	-0.02	-0.750			
0.1386	8869.69	3.8950	3.8949	-0.6689	5.98	-0.01	-0.750			
0.1406	8998.25	3.8920	3.8919	-0.6743	5.98	-0.01	-0.750			
0.1427	9130.45	3.8890	3.8891	-0.6767	5.98	-0.01	-0.750			
0.1447	9261.40	3.8860	3.8859	-0.6821	5.99	-0.00	-0.750			
0.1468	9392.36	3.8830	3.8831	-0.6840	5.99	0.00	-0.750			
0.1488	9522.55	3.8800	3.8801	-0.6853	5.99	0.00	-0.750			
0.1508	9652.66	3.8770	3.8769	-0.6928	6.00	0.01	-0.750			
0.1529	9787.11	3.8740	3.8741	-0.6900	6.00	0.01	-0.750			
0.1551	9923.31	3.8710	3.8710	-0.6956	6.00	0.01	-0.750			
0.1572	10058.83	3.8680	3.8680	-0.6977	6.01	0.02	-0.750			
0.1592	10190.36	3.8650	3.8652	-0.6935	6.01	0.02	-0.750			
0.1613	10322.38	3.8620	3.8619	-0.6914	6.02	0.03	-0.750			
0.1633	10453.01	3.8590	3.8590	-0.6970	6.02	0.03	-0.750			
0.1654	10586.55	3.8560	3.8560	-0.6986	6.03	0.04	-0.750			
0.1676	10723.92	3.8530	3.8531	-0.7059	6.03	0.04	-0.750			
0.1697	10860.79	3.8500	3.8498	-0.7109	6.04	0.05	-0.750			
0.1718	10997.36	3.8470	3.8471	-0.7117	6.04	0.05	-0.750			
0.1740	11134.24	3.8440	3.8440	-0.7087	6.05	0.06	-0.750			
0.1761	11269.42	3.8410	3.8411	-0.7159	6.05	0.06	-0.750			
0.1782	11407.25	3.8380	3.8380	-0.7074	6.06	0.07	-0.750			
0.1804	11544.35	3.8350	3.8350	-0.7105	6.06	0.07	-0.750			
0.1825	11680.91	3.8320	3.8320	-0.7105	6.07	0.08	-0.750			
0.1846	11816.52	3.8290	3.8287	-0.7053	6.07	0.08	-0.750			
0.1867	11951.98	3.8260	3.8260	-0.7051	6.08	0.09	-0.750			
0.1889	12086.49	3.8230	3.8231	-0.7098	6.09	0.10	-0.750			
0.1910	12221.36	3.8200	3.8200	-0.7095	6.09	0.10	-0.750			
0.1931	12361.11	3.8170	3.8169	-0.7172	6.10	0.11	-0.750			
0.1953	12498.37	3.8140	3.8140	-0.7144	6.11	0.12	-0.750			
0.1974	12635.83	3.8110	3.8110	-0.7174	6.11	0.12	-0.750			
0.1996	12775.59	3.8080	3.8080	-0.7169	6.12	0.13	-0.750			
0.2017	12910.70	3.8050	3.8051	-0.7196	6.13	0.14	-0.750			
0.2039	13047.70	3.8020	3.8020	-0.7150	6.13	0.14	-0.750			
0.2060	13185.26	3.7990	3.7990	-0.7214	6.14	0.15	-0.750			
0.2082	13323.64	3.7960	3.7960	-0.7292	6.15	0.16	-0.750			
0.2104	13464.68	3.7930	3.7931	-0.7334	6.16	0.17	-0.750			
0.2126	13606.19	3.7900	3.7898	-0.7386	6.16	0.17	-0.750			
0.2148	13750.09	3.7870	3.7871	-0.7417	6.17	0.18	-0.750			
0.2171	13891.59	3.7840	3.7840	-0.7424	6.18	0.19	-0.750			
0.2193	14036.98	3.7810	3.7810	-0.7497	6.18	0.19	-0.750			
0.2216	14180.47	3.7780	3.7780	-0.7457	6.19	0.20	-0.750			
0.2238	14322.19	3.7750	3.7749	-0.7448	6.20	0.21	-0.750			
0.2260	14466.69	3.7720	3.7721	-0.7503	6.20	0.21	-0.750			
0.2283	14610.52	3.7690	3.7691	-0.7509	6.21	0.22	-0.750			
0.2306	14755.56	3.7660	3.7658	-0.7543	6.21	0.22	-0.750			
0.2328	14900.08	3.7630	3.7629	-0.7534	6.22	0.23	-0.750			
0.2351	15044.16	3.7600	3.7598	-0.7544	6.23	0.24	-0.750			
0.2373	15187.93	3.7570	3.7571	-0.7623	6.23	0.24	-0.750			
0.2396	15332.96	3.7540	3.7540	-0.7688	6.24	0.25	-0.750			
0.2419	15481.09	3.7510	3.7509	-0.7679	6.25	0.26	-0.750			
0.2443	15632.59	3.7480	3.7479	-0.7757	6.26	0.27	-0.750			
0.2465	15778.37	3.7450	3.7453	-0.7964	6.27	0.28	-0.750			
0.2488	15925.97	3.7420	3.7420	-0.8524	6.28	0.29	-0.750			
0.2515	16097.76	3.7390	3.7387	-0.8917	6.28	0.29	-0.750			
0.2544	16281.19	3.7360	3.7350	-0.9020	6.29	0.30	-0.750			
0.2572	16462.99	3.7330	3.7337	-0.9099	6.30	0.31	-0.750			
0.2601	16643.37	3.7300	3.7302	-0.9005	6.30	0.31	-0.750			
0.2628	16820.81	3.7270	3.7268	-0.8788	6.31	0.32	-0.750			
0.2652	16972.59	3.7240	3.7239	-0.8286	6.32	0.33	-0.750			
0.2676	17125.10	3.7210	3.7210	-0.8163	6.32	0.33	-0.750			
0.2700	17282.65	3.7180	3.7181	-0.8281	6.33	0.34	-0.750			
0.2725	17441.62	3.7150	3.7150	-0.8371	6.33	0.34	-0.750			
0.2751	17603.71	3.7120	3.7119	-0.8480	6.34	0.35	-0.750			
0.2776	17767.26	3.7090	3.7090	-0.8534	6.35	0.36	-0.750			
0.2802	17932.75	3.7060	3.7060	-0.8596	6.35	0.36	-0.750			
0.2828	18100.38	3.7030	3.7030	-0.8684	6.36	0.37	-0.750			
0.2854	18266.87	3.7000	3.6999	-0.8712	6.36	0.37	-0.750			
0.2880	18433.18	3.6970	3.6969	-0.8728	6.37	0.38	-0.750			
0.2906	18600.60	3.6940	3.6940	-0.8745	6.38	0.39	-0.750			
0.2932	18767.65	3.6910	3.6910	-0.8816	6.38	0.39	-0.750			
0.2959	18939.99	3.6880	3.6881	-0.8927	6.39	0.40	-0.750			
0.2986	19111.01	3.6850	3.6850	-0.8987	6.39	0.40	-0.750			
0.3013	19283.67	3.6820	3.6819	-0.9050	6.40	0.41	-0.750			
0.3041	19459.47	3.6790	3.6790	-0.9105	6.40	0.41	-0.750			
0.3068	19634.21	3.6760	3.6759	-0.9215	6.41	0.42	-0.750			
0.3096	19812.40	3.6730	3.6731	-0.9288	6.41	0.42	-0.750			
0.3124	19991.73	3.6700	3.6700	-0.9402	6.42	0.43	-0.750			
0.3152	20174.05	3.6670	3.6669	-0.9454	6.42	0.43	-0.750			
0.3181	20355.99	3.6640	3.6640	-0.9477	6.43	0.44	-0.750			
0.3209	20539.18	3.6610	3.6614	-0.9556	6.43	0.44	-0.750			
0.3238	20723.63	3.6580	3.6579	-0.9644	6.43	0.44	-0.750			
0.3267	20907.88	3.6550	3.6550	-0.9633	6.43	0.44	-0.750			
0.3296	21091.85	3.6520	3.6520	-0.9690	6.44	0.45	-0.750			
0.3325	21280.73	3.6490	3.6490	-0.9835	6.44	0.45	-0.750			
0.3354	21468.43	3.6460	3.6460	-0.9927	6.44	0.45	-0.750			
0.3384	21660.54	3.6430	3.6429	-0.9983	6.45	0.46	-0.750			
0.3414	21852.53	3.6400	3.6400	-1.0062	6.46	0.47	-0.750			
0.3445	22046.49	3.6370	3.6370	-1.0113	6.47	0.48	-0.750			
0.3476	22243.56	3.6340	3.6340	-1.0247	6.47	0.48	-0.750			
0.3506	22439.72	3.6310	3.6310	-1.0278	6.47	0.48	-0.750			
0.3537	22636.65	3.6280	3.6281	-1.0333	6.48	0.49	-0.750			
0.3568	22835.10	3.6250	3.6250	-1.0363	6.48	0.49	-0.750			
0.3599	23036.39	3.6220	3.6220	-1.0470	6.48	0.49	-0.750			
0.3631	23236.96	3.6190	3.6191	-1.0538	6.48	0.49	-0.750			
0.3663	23440.05	3.6160	3.6160	-1.0639	6.49	0.50	-0.750			
0.3695	23645.42	3.6130	3.6130	-1.0695	6.49	0.50	-0.750			
0.3727	23852.12	3.6100	3.6100	-1.0847	6.49	0.50	-0.750			
0.3759	24060.64	3.6070	3.6070	-1.0960	6.50	0.51	-0.750			
0.3793	24273.61	3.6040	3.6039	-1.1028	6.50	0.51	-0.750			
0.3826	24485.96	3.6010	3.6010	-1.1108	6.51	0.52	-0.750			
0.3859	24699.79	3.5980	3.5980	-1.1239	6.51	0.52	-0.750			
0.3893	24916.96	3.5950	3.5949	-1.1334	6.52	0.53	-0.750			
0.3927	25135.83	3.5920	3.5919	-1.1425	6.52	0.53	-0.750			
0.3961	25352.71	3.5890	3.5892	-1.1545	6.53	0.54	-0.750			
0.3997	25580.90	3.5860	3.5859	-1.1585	6.53	0.54	-0.750			
0.4032	25805.11	3.5830	3.5831	-1.1619	6.53	0.54	-0.750	0.452	1.025	
0.4066	26025.25	3.5800	3.5800	-1.1691	6.53	0.54	-0.750			
0.4102	26250.84	3.5770	3.5770	-1.1839	6.53	0.54	-0.750			
0.4137	26478.85	3.5740	3.5738	-1.1915	6.53	0.54	-0.750			
0.4173	26708.01	3.5710	3.5710	-1.2015	6.54	0.55	-0.750			
0.4209	26937.51	3.5680	3.5682	-1.2172	6.54	0.55	-0.750			
0.4246	27177.15	3.5650	3.5649	-1.2343	6.54	0.55	-0.750			
0.4283	27413.77	3.5620	3.5619	-1.2424	6.55	0.56	-0.750			
0.4321	27657.18	3.5590	3.5590	-1.2295	6.55	0.56	-0.750			
0.4359	27900.19	3.5560	3.5558	-1.2183	6.55	0.56	-0.750			
0.4395	28125.99	3.5530	3.5532	-1.2103	6.56	0.57	-0.750			
0.4430	28351.15	3.5500	3.5504	-1.2048	6.57	0.58	-0.750			
0.4465	28578.19	3.5470	3.5468	-1.2232	6.57	0.58	-0.750			
0.4502	28814.29	3.5440	3.5438	-1.2482	6.58	0.59	-0.750			
0.4540	29052.90	3.5410	3.5410	-1.2704	6.58	0.59	-0.750			
0.4579	29305.34	3.5380	3.5383	-1.3088	6.59	0.60	-0.750			
0.4620	29568.99	3.5350	3.5349	-1.3375	6.59	0.60	-0.750			
0.4660	29824.77	3.5320	3.5319	-1.3433	6.59	0.60	-0.750			
0.4700	30081.30	3.5290	3.5291	-1.3562	6.59	0.60	-0.750			
0.4741	30344.57	3.5260	3.5259	-1.3647	6.59	0.60	-0.750			
0.4783	30611.53	3.5230	3.5229	-1.3757	6.60	0.61	-0.750			
0.4824	30874.13	3.5200	3.5201	-1.3925	6.61	0.62	-0.750			
0.4866	31141.72	3.5170	3.5170	-1.3952	6.61	0.62	-0.750			
0.4909	31414.73	3.5140	3.5138	-1.4043	6.62	0.63	-0.750			
0.4951	31683.47	3.5110	3.5111	-1.4143	6.63	0.64	-0.750			
0.4993	31954.44	3.5080	3.5080	-1.4177	6.64	0.65	-0.750			
0.5036	32230.63	3.5050	3.5049	-1.4337	6.64	0.65	-0.750			
0.5079	32504.99	3.5020	3.5021	-1.4351	6.65	0.66	-0.750			
0.5121	32777.42	3.4990	3.4990	-1.4297	6.66	0.67	-0.750			
0.5166	33059.64	3.4960	3.4958	-1.4417	6.66	0.67	-0.750			
0.5209	33335.20	3.4930	3.4931	-1.4450	6.67	0.68	-0.750			
0.5252	33611.07	3.4900	3.4899	-1.4393	6.68	0.69	-0.750			
0.5295	33889.53	3.4870	3.4869	-1.4483	6.68	0.69	-0.750			
0.5339	34170.20	3.4840	3.4842	-1.4546	6.69	0.70	-0.750			
0.5383	34450.17	3.4810	3.4809	-1.4537	6.70	0.71	-0.750			
0.5426	34729.42	3.4780	3.4779	-1.4718	6.70	0.71	-0.750			
0.5471	35012.89	3.4750	3.4752	-1.4629	6.71	0.72	-0.750			
0.5515	35296.69	3.4720	3.4718	-1.4647	6.73	0.74	-0.750			
0.5559	35576.52	3.4690	3.4690	-1.4600	6.74	0.75	-0.750			
0.5602	35852.74	3.4660	3.4661	-1.4429	6.76	0.77	-0.750			
0.5646	36136.89	3.4630	3.4629	-1.4462	6.77	0.78	-0.750			
0.5689	36409.79	3.4600	3.4599	-1.4384	6.78	0.79	-0.750			
0.5732	36684.44	3.4570	3.4570	-1.4207	6.80	0.81	-0.750			
0.5775	36960.95	3.4540	3.4539	-1.4207	6.81	0.82	-0.750			
0.5818	37232.63	3.4510	3.4509	-1.4102	6.82	0.83	-0.750			
0.5859	37500.59	3.4480	3.4480	-1.3927	6.84	0.85	-0.750			
0.5901	37769.38	3.4450	3.4449	-1.3840	6.85	0.86	-0.750			
0.5942	38031.67	3.4420	3.4420	-1.3787	6.86	0.87	-0.750			
0.5983	38294.12	3.4390	3.4390	-1.3573	6.88	0.89	-0.750			
0.6025	38561.25	3.4360	3.4359	-1.3538	6.89	0.90	-0.750			
0.6065	38815.72	3.4330	3.4330	-1.3362	6.90	0.91	-0.750			
0.6105	39073.11	3.4300	3.4300	-1.3122	6.92	0.93	-0.750			
0.6144	39324.39	3.4270	3.4269	-1.2911	6.93	0.94	-0.750			
0.6183	39569.57	3.4240	3.4239	-1.2633	6.94	0.95	-0.750			
0.6220	39807.72	3.4210	3.4212	-1.2409	6.95	0.96	-0.750			
0.6257	40046.14	3.4180	3.4179	-1.2224	6.97	0.98	-0.750			
0.6294	40279.10	3.4150	3.4149	-1.1937	6.99	1.00	-0.750			
0.6329	40503.18	3.4120	3.4120	-1.1623	7.01	1.02	-0.750			
0.6364	40727.78	3.4090	3.4090	-1.1469	7.02	1.03	-0.750			
0.6398	40946.16	3.4060	3.4059	-1.1179	7.03	1.04	-0.750			
0.6431	41157.86	3.4030	3.4029	-1.0893	7.05	1.06	-0.750			
0.6463	41360.39	3.4000	3.4002	-1.0623	7.06	1.07	-0.750			
0.6495	41565.75	3.3970	3.3970	-1.0384	7.07	1.08	-0.750			
0.6525	41762.23	3.3940	3.3939	-1.0159	7.09	1.10	-0.750			
0.6555	41952.98	3.3910	3.3910	-0.9909	7.10	1.11	-0.750			
0.6585	42142.75	3.3880	3.3883	-0.9696	7.11	1.12	-0.750			
0.6613	42325.37	3.3850	3.3849	-0.9494	7.13	1.14	-0.750			
0.6641	42505.53	3.3820	3.3820	-0.9239	7.15	1.16	-0.750			
0.6669	42681.32	3.3790	3.3790	-0.8972	7.16	1.17	-0.750			
0.6696	42852.81	3.3760	3.3759	-0.8807	7.18	1.19	-0.750			
0.6722	43018.11	3.3730	3.3730	-0.8499	7.20	1.21	-0.750			
0.6747	43177.85	3.3700	3.3700	-0.8282	7.21	1.22	-0.750			
0.6771	43334.62	3.3670	3.3670	-0.8093	7.22	1.23	-0.750			
0.6795	43486.70	3.3640	3.3640	-0.7853	7.23	1.24	-0.750			
0.6818	43637.57	3.3610	3.3609	-0.7695	7.24	1.25	-0.750			
0.6841	43784.41	3.3580	3.3580	-0.7512	7.25	1.26	-0.750			
0.6863	43925.57	3.3550	3.3551	-0.7282	7.27	1.28	-0.750			
0.6885	44062.80	3.3520	3.3519	-0.7173	7.28	1.29	-0.750			
0.6906	44198.63	3.3490	3.3491	-0.6972	7.30	1.31	-0.750			
0.6927	44330.35	3.3460	3.3459	-0.6800	7.31	1.32	-0.750			
0.6947	44460.32	3.3430	3.3430	-0.6621	7.32	1.33	-0.750			
0.6967	44586.55	3.3400	3.3401	-0.6463	7.33	1.34	-0.750			
0.6986	44708.12	3.3370	3.3370	-0.6316	7.35	1.36	-0.750			
0.7004	44827.84	3.3340	3.3339	-0.6137	7.36	1.37	-0.750			
0.7022	44941.83	3.3310	3.3310	-0.5959	7.37	1.38	-0.750			
0.7040	45056.98	3.3280	3.3281	-0.5875	7.39	1.40	-0.750			
0.7058	45168.34	3.3250	3.3251	-0.5748	7.40	1.41	-0.750			
0.7075	45277.59	3.3220	3.3219	-0.5636	7.41	1.42	-0.750			
0.7091	45383.48	3.3190	3.3190	-0.5511	7.42	1.43	-0.750			
0.7107	45487.94	3.3160	3.3160	-0.5452	7.44	1.45	-0.750			
0.7124	45591.96	3.3130	3.3130	-0.5299	7.45	1.46	-0.750			
