Ah_balance (normalized)	Ah_balance (mAh)	Voltage - fit (V)	Voltage -  interpolate (V)	dQ/dV (1/V)	Temperature (°C)	Temperature - diff (°C)	Current (C)	R_DC 0ms (mOhm)	R_DC 50ms (mOhm)	R_DC 50 ms PEC (mOhm)
0.1806	11560.44	4.0810	4.0810	0.7610	7.53	1.54	0.750			
0.1830	11710.69	4.0780	4.0779	0.7789	7.53	1.54	0.750			
0.1852	11854.17	4.0750	4.0751	0.7689	7.52	1.53	0.750			
0.1875	12002.44	4.0720	4.0720	0.7759	7.52	1.53	0.750			
0.1899	12152.47	4.0690	4.0689	0.7801	7.51	1.52	0.750			
0.1922	12302.83	4.0660	4.0660	0.7824	7.51	1.52	0.750			
0.1946	12457.14	4.0630	4.0631	0.7757	7.50	1.51	0.750			
0.1969	12603.85	4.0600	4.0601	0.7815	7.49	1.50	0.750			
0.1993	12753.02	4.0570	4.0571	0.7807	7.49	1.50	0.750			
0.2016	12902.90	4.0540	4.0541	0.7833	7.48	1.49	0.750			
0.2039	13051.70	4.0510	4.0508	0.7882	7.48	1.49	0.750			
0.2063	13205.10	4.0480	4.0482	0.7910	7.47	1.48	0.750			
0.2087	13358.13	4.0450	4.0449	0.8008	7.47	1.48	0.750			
0.2111	13513.27	4.0420	4.0420	0.8064	7.46	1.47	0.750			
0.2136	13667.29	4.0390	4.0390	0.8029	7.45	1.46	0.750			
0.2160	13823.42	4.0360	4.0359	0.8077	7.45	1.46	0.750			
0.2184	13979.51	4.0330	4.0331	0.8121	7.44	1.45	0.750			
0.2209	14134.89	4.0300	4.0300	0.8065	7.43	1.44	0.750			
0.2233	14288.74	4.0270	4.0270	0.8135	7.43	1.44	0.750			
0.2257	14443.03	4.0240	4.0241	0.8141	7.42	1.43	0.750			
0.2281	14600.53	4.0210	4.0205	0.8243	7.41	1.42	0.750			
0.2306	14759.97	4.0180	4.0181	0.8317	7.41	1.42	0.750			
0.2331	14920.87	4.0150	4.0150	0.8303	7.40	1.41	0.750			
0.2357	15081.71	4.0120	4.0121	0.8348	7.40	1.41	0.750			
0.2381	15240.30	4.0090	4.0091	0.8322	7.39	1.40	0.750			
0.2406	15401.13	4.0060	4.0057	0.8383	7.39	1.40	0.750			
0.2432	15563.12	4.0030	4.0031	0.8378	7.38	1.39	0.750			
0.2457	15723.49	4.0000	4.0001	0.8421	7.37	1.38	0.750			
0.2482	15887.52	3.9970	3.9970	0.8497	7.37	1.38	0.750			
0.2508	16050.21	3.9940	3.9940	0.8509	7.36	1.37	0.750			
0.2533	16213.89	3.9910	3.9909	0.8549	7.35	1.36	0.750			
0.2559	16379.67	3.9880	3.9880	0.8540	7.34	1.35	0.750			
0.2585	16545.27	3.9850	3.9851	0.8590	7.33	1.34	0.750			
0.2611	16709.73	3.9820	3.9820	0.8626	7.32	1.33	0.750			
0.2636	16873.49	3.9790	3.9790	0.8642	7.32	1.33	0.750			
0.2662	17038.80	3.9760	3.9761	0.8689	7.31	1.32	0.750			
0.2689	17206.93	3.9730	3.9730	0.8729	7.30	1.31	0.750			
0.2715	17376.44	3.9700	3.9700	0.8840	7.30	1.31	0.750			
0.2742	17547.47	3.9670	3.9671	0.8908	7.30	1.31	0.750			
0.2769	17719.27	3.9640	3.9639	0.8908	7.29	1.30	0.750			
0.2795	17890.00	3.9610	3.9611	0.8959	7.29	1.30	0.750			
0.2822	18062.07	3.9580	3.9581	0.8926	7.28	1.29	0.750			
0.2849	18233.28	3.9550	3.9550	0.8982	7.27	1.28	0.750			
0.2876	18405.83	3.9520	3.9521	0.9073	7.27	1.28	0.750			
0.2903	18579.06	3.9490	3.9488	0.9107	7.26	1.27	0.750			
0.2931	18757.19	3.9460	3.9460	0.9117	7.25	1.26	0.750			
0.2958	18931.70	3.9430	3.9430	0.9247	7.25	1.26	0.750			
0.2986	19109.15	3.9400	3.9401	0.9335	7.24	1.25	0.750			
0.3014	19291.06	3.9370	3.9370	0.9447	7.23	1.24	0.750			
0.3042	19470.49	3.9340	3.9340	0.9488	7.23	1.24	0.750			
0.3071	19652.39	3.9310	3.9311	0.9521	7.22	1.23	0.750			
0.3099	19835.53	3.9280	3.9281	0.9651	7.21	1.22	0.750			
0.3128	20020.59	3.9250	3.9251	0.9804	7.20	1.21	0.750			
0.3158	20209.21	3.9220	3.9216	0.9841	7.19	1.20	0.750			
0.3187	20398.48	3.9190	3.9193	0.9943	7.18	1.19	0.750			
0.3217	20589.75	3.9160	3.9161	1.0179	7.17	1.18	0.750			
0.3248	20789.19	3.9130	3.9132	1.0362	7.16	1.17	0.750			
0.3280	20989.05	3.9100	3.9094	1.0423	7.15	1.16	0.750			
0.3311	21192.28	3.9070	3.9072	1.0471	7.15	1.16	0.750			
0.3343	21394.52	3.9040	3.9041	1.0582	7.14	1.15	0.750			
0.3375	21601.92	3.9010	3.9010	1.0705	7.13	1.14	0.750			
0.3407	21806.93	3.8980	3.8980	1.0705	7.13	1.14	0.750			
0.3438	22004.08	3.8950	3.8951	1.0731	7.11	1.12	0.750			
0.3471	22216.23	3.8920	3.8920	1.0718	7.10	1.11	0.750			
0.3504	22425.52	3.8890	3.8890	1.0698	7.08	1.09	0.750			
0.3536	22630.30	3.8860	3.8862	1.0545	7.07	1.08	0.750			
0.3565	22818.76	3.8830	3.8837	1.0656	7.06	1.07	0.750			
0.3596	23014.87	3.8800	3.8808	1.0926	7.05	1.06	0.750			
0.3630	23229.39	3.8770	3.8781	1.1316	7.04	1.05	0.750			
0.3664	23451.74	3.8740	3.8742	1.1502	7.03	1.04	0.750			
0.3701	23685.97	3.8710	3.8714	1.2005	7.02	1.03	0.750			
0.3738	23923.78	3.8680	3.8682	1.2086	7.00	1.01	0.750			
0.3775	24162.30	3.8650	3.8646	1.2014	6.99	1.00	0.750			
0.3809	24380.29	3.8620	3.8620	1.1872	6.98	0.99	0.750			
0.3845	24609.75	3.8590	3.8593	1.2053	6.97	0.98	0.750			
0.3882	24842.48	3.8560	3.8561	1.2328	6.96	0.97	0.750			
0.3919	25079.78	3.8530	3.8529	1.2469	6.94	0.95	0.750			
0.3956	25319.84	3.8500	3.8501	1.2748	6.93	0.94	0.750			
0.3996	25571.62	3.8470	3.8470	1.3095	6.91	0.92	0.750			
0.4035	25824.90	3.8440	3.8441	1.3435	6.90	0.91	0.750			
0.4076	26085.66	3.8410	3.8409	1.3698	6.88	0.89	0.750			
0.4118	26357.96	3.8380	3.8382	1.3945	6.86	0.87	0.750	0.416	0.934	
0.4160	26627.16	3.8350	3.8348	1.4177	6.85	0.86	0.750			
0.4203	26901.53	3.8320	3.8322	1.4415	6.83	0.84	0.750			
0.4246	27176.05	3.8290	3.8291	1.4645	6.82	0.83	0.750			
0.4291	27460.62	3.8260	3.8261	1.5062	6.81	0.82	0.750			
0.4336	27751.38	3.8230	3.8230	1.5214	6.79	0.80	0.750			
0.4383	28052.08	3.8200	3.8200	1.5423	6.77	0.78	0.750			
0.4430	28351.92	3.8170	3.8171	1.5676	6.75	0.76	0.750			
0.4477	28654.71	3.8140	3.8139	1.5993	6.73	0.74	0.750			
0.4524	28955.49	3.8110	3.8108	1.6208	6.71	0.72	0.750			
0.4573	29269.30	3.8080	3.8082	1.6577	6.70	0.71	0.750			
0.4625	29597.08	3.8050	3.8051	1.7035	6.68	0.69	0.750			
0.4677	29933.58	3.8020	3.8020	1.7213	6.66	0.67	0.750			
0.4728	30262.28	3.7990	3.7990	1.7515	6.63	0.64	0.750			
0.4782	30605.94	3.7960	3.7959	1.7699	6.61	0.62	0.750			
0.4834	30939.92	3.7930	3.7929	1.8155	6.59	0.60	0.750			
0.4890	31294.68	3.7900	3.7901	1.8590	6.57	0.58	0.750			
0.4948	31664.53	3.7870	3.7868	1.8815	6.55	0.56	0.750			
0.5005	32034.47	3.7840	3.7842	1.9104	6.53	0.54	0.750			
0.5063	32400.10	3.7810	3.7812	1.9171	6.51	0.52	0.750			
0.5119	32763.45	3.7780	3.7779	1.9146	6.48	0.49	0.750			
0.5178	33139.58	3.7750	3.7751	1.9650	6.46	0.47	0.750			
0.5238	33521.69	3.7720	3.7719	2.0200	6.44	0.45	0.750			
0.5298	33904.16	3.7690	3.7691	2.0264	6.42	0.43	0.750			
0.5359	34300.27	3.7660	3.7660	2.0286	6.40	0.41	0.750			
0.5421	34696.10	3.7630	3.7631	2.0766	6.38	0.39	0.750			
0.5483	35091.96	3.7600	3.7600	2.1003	6.35	0.36	0.750			
0.5547	35500.66	3.7570	3.7571	2.1330	6.32	0.33	0.750			
0.5611	35912.70	3.7540	3.7540	2.1336	6.30	0.31	0.750			
0.5675	36321.98	3.7510	3.7510	2.1725	6.28	0.29	0.750			
0.5741	36743.69	3.7480	3.7479	2.2454	6.25	0.26	0.750			
0.5810	37182.56	3.7450	3.7450	2.3152	6.22	0.23	0.750			
0.5881	37635.91	3.7420	3.7418	2.3892	6.20	0.21	0.750			
0.5954	38105.36	3.7390	3.7390	2.4563	6.17	0.18	0.750			
0.6029	38585.43	3.7360	3.7359	2.5177	6.15	0.16	0.750			
0.6105	39070.96	3.7330	3.7331	2.5046	6.13	0.14	0.750			
0.6182	39564.20	3.7300	3.7301	2.5463	6.10	0.11	0.750			
0.6257	40047.83	3.7270	3.7270	2.5332	6.08	0.09	0.750			
0.6334	40537.40	3.7240	3.7239	2.5078	6.06	0.07	0.750			
0.6410	41022.18	3.7210	3.7208	2.3941	6.05	0.06	0.750			
0.6481	41476.52	3.7180	3.7180	2.2556	6.03	0.04	0.750			
0.6545	41887.80	3.7150	3.7150	2.0621	6.02	0.03	0.750			
0.6605	42271.63	3.7120	3.7121	1.8643	6.01	0.02	0.750			
0.6657	42604.18	3.7090	3.7091	1.6527	6.01	0.02	0.750			
0.6703	42896.60	3.7060	3.7061	1.4714	6.00	0.01	0.750			
0.6744	43158.88	3.7030	3.7031	1.3175	6.00	0.01	0.750			
0.6781	43398.51	3.7000	3.6998	1.2030	5.99	-0.00	0.750			
0.6814	43608.69	3.6970	3.6970	1.0888	5.98	-0.01	0.750			
0.6845	43804.97	3.6940	3.6940	1.0202	5.98	-0.01	0.750			
0.6873	43989.74	3.6910	3.6910	0.9577	5.98	-0.01	0.750			
0.6901	44164.88	3.6880	3.6878	0.9140	5.97	-0.02	0.750			
0.6927	44334.72	3.6850	3.6850	0.8769	5.97	-0.02	0.750			
0.6953	44499.95	3.6820	3.6820	0.8498	5.97	-0.02	0.750			
0.6979	44663.20	3.6790	3.6790	0.8192	5.97	-0.02	0.750			
0.7003	44817.58	3.6760	3.6760	0.7820	5.97	-0.02	0.750			
0.7026	44965.68	3.6730	3.6731	0.7468	5.97	-0.02	0.750			
0.7048	45106.67	3.6700	3.6699	0.7105	5.97	-0.02	0.750			
0.7068	45238.27	3.6670	3.6670	0.6696	5.98	-0.01	0.750			
0.7088	45362.52	3.6640	3.6641	0.6313	5.98	-0.01	0.750			
0.7106	45480.03	3.6610	3.6609	0.5942	5.98	-0.01	0.750			
0.7124	45590.60	3.6580	3.6580	0.5539	5.98	-0.01	0.750			
0.7139	45692.55	3.6550	3.6550	0.5150	5.99	-0.00	0.750			
0.7154	45787.81	3.6520	3.6517	0.4759	5.99	-0.00	0.750			
0.7168	45875.65	3.6490	3.6491	0.4386	5.99	0.00	0.750			
0.7181	45956.10	3.6460	3.6460	0.4011	5.99	0.00	0.750			
0.7192	46028.73	3.6430	3.6430	0.3652	6.00	0.01	0.750			
0.7202	46095.74	3.6400	3.6400	0.3308	6.00	0.01	0.750			
0.7212	46155.45	3.6370	3.6370	0.2961	6.00	0.01	0.750			
0.7220	46209.73	3.6340	3.6338	0.2588	6.00	0.01	0.750			
0.7228	46256.69	3.6310	3.6311	0.2251	6.00	0.01	0.750			
0.7234	46296.38	3.6280	3.6280	0.1875	6.00	0.01	0.750			
0.7239	46329.99	3.6250	3.6250	0.1511	6.00	0.01	0.750			
0.7243	46355.52	3.6220	3.6222	0.1113	6.00	0.01	0.750			
0.7246	46371.99	3.6190	3.6197	0.0718	6.00	0.01	0.750			
0.7247	46383.40	3.6160	3.6167	0.0284	6.00	0.01	0.750			
0.7248	46384.77	3.6130	3.6162	-0.0142	6.00	0.01	0.750			
