Ah_balance (normalized)	Ah_balance (mAh)	Voltage - fit (V)	Voltage -  interpolate (V)	dQ/dV (1/V)	Temperature (°C)	Temperature - diff (°C)	Current (C)	R_DC 0ms (mOhm)	R_DC 50ms (mOhm)	R_DC 50 ms PEC (mOhm)
0.0940	6018.04	4.0060	4.0056	-0.0638	6.00	0.01	-0.750			
0.0943	6035.23	4.0030	4.0029	-0.1050	6.00	0.01	-0.750			
0.0947	6060.38	4.0000	3.9997	-0.1379	6.00	0.01	-0.750			
0.0952	6090.15	3.9970	3.9968	-0.1653	5.99	0.00	-0.750			
0.0957	6124.96	3.9940	3.9941	-0.1902	5.99	0.00	-0.750			
0.0963	6163.98	3.9910	3.9912	-0.2151	5.99	0.00	-0.750			
0.0970	6209.09	3.9880	3.9880	-0.2402	5.99	0.00	-0.750			
0.0978	6256.46	3.9850	3.9850	-0.2636	5.99	0.00	-0.750			
0.0986	6309.71	3.9820	3.9819	-0.2864	5.99	-0.00	-0.750			
0.0995	6366.41	3.9790	3.9790	-0.3112	5.99	-0.00	-0.750			
0.1004	6428.53	3.9760	3.9760	-0.3369	5.99	-0.00	-0.750			
0.1015	6495.30	3.9730	3.9730	-0.3637	5.98	-0.01	-0.750			
0.1026	6568.37	3.9700	3.9699	-0.3878	5.98	-0.01	-0.750			
0.1038	6645.12	3.9670	3.9670	-0.4138	5.98	-0.01	-0.750			
0.1051	6725.85	3.9640	3.9640	-0.4424	5.98	-0.01	-0.750			
0.1065	6815.03	3.9610	3.9610	-0.4677	5.98	-0.01	-0.750			
0.1079	6907.09	3.9580	3.9578	-0.4914	5.97	-0.02	-0.750			
0.1094	7004.57	3.9550	3.9550	-0.5132	5.97	-0.02	-0.750			
0.1110	7105.49	3.9520	3.9521	-0.5356	5.97	-0.02	-0.750			
0.1127	7211.24	3.9490	3.9490	-0.5554	5.97	-0.02	-0.750			
0.1144	7319.13	3.9460	3.9460	-0.5716	5.97	-0.02	-0.750			
0.1161	7429.25	3.9430	3.9430	-0.5909	5.97	-0.02	-0.750			
0.1179	7546.56	3.9400	3.9400	-0.6118	5.97	-0.02	-0.750			
0.1198	7666.03	3.9370	3.9370	-0.6268	5.97	-0.02	-0.750			
0.1217	7788.19	3.9340	3.9340	-0.6426	5.97	-0.02	-0.750			
0.1236	7913.18	3.9310	3.9310	-0.6566	5.97	-0.02	-0.750			
0.1256	8041.45	3.9280	3.9280	-0.6699	5.97	-0.02	-0.750			
0.1277	8171.15	3.9250	3.9249	-0.6805	5.98	-0.01	-0.750			
0.1297	8302.41	3.9220	3.9221	-0.6882	5.98	-0.01	-0.750			
0.1318	8437.03	3.9190	3.9190	-0.6999	5.98	-0.01	-0.750			
0.1339	8572.35	3.9160	3.9159	-0.7096	5.99	-0.00	-0.750			
0.1361	8709.34	3.9130	3.9131	-0.7147	5.99	0.00	-0.750			
0.1382	8847.20	3.9100	3.9100	-0.7200	5.99	0.00	-0.750			
0.1404	8986.55	3.9070	3.9070	-0.7286	5.99	0.00	-0.750			
0.1426	9127.69	3.9040	3.9040	-0.7349	5.99	0.00	-0.750			
0.1448	9270.21	3.9010	3.9009	-0.7378	5.99	0.00	-0.750			
0.1471	9412.58	3.8980	3.8980	-0.7393	5.99	0.00	-0.750			
0.1493	9553.94	3.8950	3.8949	-0.7411	5.99	0.00	-0.750			
0.1515	9696.45	3.8920	3.8920	-0.7473	6.00	0.01	-0.750			
0.1538	9840.13	3.8890	3.8889	-0.7484	6.01	0.02	-0.750			
0.1560	9982.91	3.8860	3.8860	-0.7508	6.02	0.03	-0.750			
0.1583	10128.70	3.8830	3.8831	-0.7581	6.02	0.03	-0.750			
0.1606	10275.63	3.8800	3.8801	-0.7626	6.03	0.04	-0.750			
0.1629	10423.23	3.8770	3.8769	-0.7641	6.04	0.05	-0.750			
0.1651	10568.66	3.8740	3.8740	-0.7658	6.04	0.05	-0.750			
0.1674	10715.65	3.8710	3.8711	-0.7703	6.05	0.06	-0.750			
0.1698	10866.23	3.8680	3.8679	-0.7744	6.06	0.07	-0.750			
0.1721	11014.10	3.8650	3.8649	-0.7725	6.07	0.08	-0.750			
0.1744	11162.08	3.8620	3.8620	-0.7711	6.07	0.08	-0.750			
0.1767	11309.53	3.8590	3.8590	-0.7753	6.08	0.09	-0.750			
0.1791	11459.32	3.8560	3.8561	-0.7788	6.08	0.09	-0.750			
0.1814	11607.87	3.8530	3.8529	-0.7805	6.08	0.09	-0.750			
0.1837	11758.60	3.8500	3.8499	-0.7822	6.09	0.10	-0.750			
0.1861	11910.05	3.8470	3.8471	-0.7864	6.09	0.10	-0.750			
0.1884	12060.77	3.8440	3.8440	-0.7887	6.10	0.11	-0.750			
0.1908	12213.88	3.8410	3.8410	-0.7935	6.11	0.12	-0.750			
0.1932	12365.89	3.8380	3.8380	-0.7922	6.11	0.12	-0.750			
0.1956	12518.36	3.8350	3.8350	-0.7918	6.12	0.13	-0.750			
0.1980	12669.86	3.8320	3.8323	-0.7962	6.13	0.14	-0.750			
0.2004	12823.63	3.8290	3.8289	-0.7988	6.14	0.15	-0.750			
0.2028	12976.95	3.8260	3.8260	-0.7975	6.15	0.16	-0.750			
0.2051	13128.91	3.8230	3.8230	-0.7992	6.15	0.16	-0.750			
0.2076	13285.07	3.8200	3.8201	-0.8047	6.16	0.17	-0.750			
0.2100	13438.77	3.8170	3.8171	-0.8029	6.17	0.18	-0.750			
0.2124	13593.24	3.8140	3.8139	-0.8001	6.17	0.18	-0.750			
0.2148	13744.66	3.8110	3.8110	-0.8010	6.18	0.19	-0.750			
0.2172	13899.71	3.8080	3.8080	-0.8012	6.18	0.19	-0.750			
0.2196	14053.53	3.8050	3.8050	-0.8002	6.18	0.19	-0.750			
0.2220	14207.50	3.8020	3.8020	-0.7984	6.19	0.20	-0.750			
0.2244	14360.94	3.7990	3.7991	-0.8016	6.19	0.20	-0.750			
0.2268	14512.53	3.7960	3.7960	-0.8074	6.20	0.21	-0.750			
0.2292	14670.39	3.7930	3.7929	-0.8056	6.21	0.22	-0.750			
0.2316	14824.81	3.7900	3.7900	-0.8002	6.22	0.23	-0.750			
0.2341	14979.52	3.7870	3.7871	-0.8060	6.23	0.24	-0.750			
0.2365	15135.11	3.7840	3.7840	-0.8048	6.23	0.24	-0.750			
0.2389	15287.94	3.7810	3.7809	-0.8090	6.24	0.25	-0.750			
0.2413	15442.06	3.7780	3.7780	-0.8048	6.25	0.26	-0.750			
0.2437	15596.45	3.7750	3.7751	-0.8072	6.26	0.27	-0.750			
0.2462	15754.94	3.7720	3.7719	-0.8111	6.26	0.27	-0.750			
0.2486	15911.63	3.7690	3.7691	-0.8099	6.27	0.28	-0.750			
0.2510	16065.32	3.7660	3.7660	-0.8064	6.28	0.29	-0.750			
0.2534	16220.09	3.7630	3.7630	-0.8102	6.29	0.30	-0.750			
0.2559	16378.67	3.7600	3.7599	-0.7977	6.30	0.31	-0.750			
0.2584	16534.70	3.7570	3.7569	-0.7867	6.30	0.31	-0.750			
0.2607	16683.05	3.7540	3.7543	-0.7804	6.31	0.32	-0.750			
0.2630	16830.05	3.7510	3.7513	-0.7752	6.32	0.33	-0.750			
0.2652	16974.44	3.7480	3.7476	-0.7832	6.33	0.34	-0.750			
0.2675	17119.70	3.7450	3.7449	-0.7876	6.33	0.34	-0.750			
0.2699	17272.86	3.7420	3.7420	-0.8022	6.34	0.35	-0.750			
0.2724	17430.92	3.7390	3.7392	-0.8172	6.35	0.36	-0.750			
0.2749	17595.19	3.7360	3.7360	-0.8311	6.36	0.37	-0.750			
0.2774	17753.73	3.7330	3.7330	-0.8344	6.36	0.37	-0.750			
0.2799	17912.96	3.7300	3.7300	-0.8348	6.37	0.38	-0.750			
0.2824	18073.62	3.7270	3.7269	-0.8363	6.38	0.39	-0.750			
0.2849	18236.02	3.7240	3.7241	-0.8405	6.39	0.40	-0.750			
0.2875	18397.19	3.7210	3.7210	-0.8465	6.39	0.40	-0.750			
0.2900	18559.93	3.7180	3.7180	-0.8583	6.40	0.41	-0.750			
0.2926	18725.21	3.7150	3.7149	-0.8631	6.41	0.42	-0.750			
0.2952	18891.17	3.7120	3.7120	-0.8664	6.41	0.42	-0.750			
0.2978	19060.97	3.7090	3.7092	-0.8735	6.42	0.43	-0.750			
0.3004	19228.26	3.7060	3.7060	-0.8811	6.42	0.43	-0.750			
0.3031	19396.93	3.7030	3.7030	-0.8857	6.43	0.44	-0.750			
0.3057	19566.01	3.7000	3.6999	-0.8895	6.43	0.44	-0.750			
0.3084	19737.11	3.6970	3.6970	-0.8990	6.44	0.45	-0.750			
0.3111	19910.95	3.6940	3.6942	-0.9105	6.44	0.45	-0.750			
0.3139	20088.25	3.6910	3.6910	-0.9248	6.45	0.46	-0.750			
0.3167	20267.20	3.6880	3.6879	-0.9323	6.45	0.46	-0.750			
0.3195	20445.58	3.6850	3.6851	-0.9348	6.46	0.47	-0.750			
0.3223	20627.28	3.6820	3.6820	-0.9458	6.47	0.48	-0.750			
0.3251	20807.99	3.6790	3.6790	-0.9596	6.48	0.49	-0.750			
0.3280	20993.64	3.6760	3.6760	-0.9667	6.49	0.50	-0.750			
0.3309	21179.64	3.6730	3.6729	-0.9758	6.50	0.51	-0.750			
0.3339	21368.58	3.6700	3.6699	-0.9831	6.51	0.52	-0.750			
0.3369	21560.45	3.6670	3.6671	-0.9921	6.51	0.52	-0.750			
0.3398	21749.82	3.6640	3.6640	-1.0094	6.52	0.53	-0.750			
0.3429	21943.91	3.6610	3.6610	-1.0174	6.52	0.53	-0.750			
0.3459	22138.90	3.6580	3.6579	-1.0254	6.53	0.54	-0.750			
0.3490	22338.31	3.6550	3.6551	-1.0517	6.53	0.54	-0.750			
0.3522	22543.46	3.6520	3.6521	-1.0590	6.54	0.55	-0.750			
0.3554	22748.67	3.6490	3.6489	-1.0693	6.54	0.55	-0.750			
0.3586	22953.04	3.6460	3.6461	-1.0774	6.55	0.56	-0.750			
0.3619	23161.83	3.6430	3.6429	-1.1000	6.55	0.56	-0.750			
0.3653	23376.50	3.6400	3.6399	-1.1134	6.56	0.57	-0.750			
0.3686	23590.89	3.6370	3.6369	-1.1234	6.56	0.57	-0.750			
0.3720	23806.79	3.6340	3.6341	-1.1349	6.57	0.58	-0.750			
0.3755	24029.22	3.6310	3.6309	-1.1533	6.57	0.58	-0.750			
0.3789	24250.10	3.6280	3.6279	-1.1590	6.58	0.59	-0.750			
0.3824	24471.89	3.6250	3.6250	-1.1699	6.59	0.60	-0.750			
0.3859	24695.80	3.6220	3.6221	-1.1822	6.59	0.60	-0.750			
0.3895	24928.24	3.6190	3.6189	-1.2040	6.59	0.60	-0.750			
0.3931	25159.39	3.6160	3.6160	-1.2168	6.59	0.60	-0.750			
0.3967	25390.92	3.6130	3.6131	-1.2437	6.59	0.60	-0.750			
0.4005	25632.94	3.6100	3.6099	-1.2648	6.59	0.60	-0.750			
0.4044	25881.18	3.6070	3.6069	-1.2754	6.60	0.61	-0.750			
0.4082	26127.79	3.6040	3.6039	-1.2848	6.61	0.62	-0.750			
0.4121	26376.40	3.6010	3.6009	-1.2974	6.61	0.62	-0.750	0.485	1.098	
0.4161	26627.84	3.5980	3.5978	-1.3039	6.61	0.62	-0.750			
0.4200	26876.83	3.5950	3.5950	-1.3081	6.61	0.62	-0.750			
0.4238	27124.20	3.5920	3.5921	-1.3203	6.61	0.62	-0.750			
0.4278	27380.62	3.5890	3.5888	-1.3419	6.61	0.62	-0.750			
0.4319	27642.71	3.5860	3.5860	-1.3688	6.62	0.63	-0.750			
0.4360	27906.46	3.5830	3.5831	-1.3880	6.62	0.63	-0.750			
0.4403	28178.86	3.5800	3.5799	-1.4079	6.62	0.63	-0.750			
0.4446	28451.73	3.5770	3.5770	-1.4191	6.63	0.64	-0.750			
0.4488	28725.42	3.5740	3.5741	-1.4272	6.63	0.64	-0.750			
0.4531	28997.77	3.5710	3.5710	-1.4499	6.63	0.64	-0.750			
0.4574	29276.23	3.5680	3.5680	-1.4643	6.64	0.65	-0.750			
0.4618	29554.85	3.5650	3.5650	-1.4886	6.64	0.65	-0.750			
0.4663	29843.83	3.5620	3.5619	-1.5196	6.64	0.65	-0.750			
0.4710	30141.38	3.5590	3.5589	-1.5310	6.65	0.66	-0.750			
0.4756	30437.70	3.5560	3.5559	-1.5534	6.65	0.66	-0.750			
0.4803	30739.84	3.5530	3.5530	-1.5693	6.65	0.66	-0.750			
0.4850	31040.40	3.5500	3.5501	-1.5663	6.65	0.66	-0.750			
0.4897	31341.86	3.5470	3.5469	-1.5732	6.65	0.66	-0.750			
0.4944	31643.47	3.5440	3.5438	-1.5722	6.65	0.66	-0.750			
0.4992	31947.65	3.5410	3.5410	-1.5942	6.65	0.66	-0.750			
0.5040	32256.06	3.5380	3.5378	-1.6170	6.65	0.66	-0.750			
0.5088	32563.87	3.5350	3.5350	-1.6322	6.65	0.66	-0.750			
0.5137	32877.19	3.5320	3.5321	-1.6598	6.66	0.67	-0.750			
0.5189	33207.90	3.5290	3.5291	-1.6800	6.66	0.67	-0.750			
0.5239	33531.12	3.5260	3.5260	-1.6867	6.67	0.68	-0.750			
0.5290	33857.90	3.5230	3.5230	-1.6983	6.67	0.68	-0.750			
0.5342	34188.40	3.5200	3.5199	-1.7008	6.67	0.68	-0.750			
0.5393	34513.79	3.5170	3.5169	-1.7118	6.67	0.68	-0.750			
0.5444	34841.45	3.5140	3.5138	-1.6915	6.68	0.69	-0.750			
0.5494	35164.45	3.5110	3.5111	-1.6908	6.68	0.69	-0.750			
0.5546	35492.47	3.5080	3.5079	-1.6992	6.70	0.71	-0.750			
0.5596	35816.18	3.5050	3.5048	-1.6834	6.71	0.72	-0.750			
0.5647	36142.95	3.5020	3.5021	-1.6885	6.71	0.72	-0.750			
0.5699	36471.44	3.4990	3.4991	-1.6752	6.71	0.72	-0.750			
0.5749	36796.46	3.4960	3.4959	-1.6443	6.71	0.72	-0.750			
0.5798	37107.74	3.4930	3.4933	-1.6361	6.72	0.73	-0.750			
0.5846	37415.41	3.4900	3.4902	-1.6394	6.73	0.74	-0.750			
0.5895	37725.71	3.4870	3.4867	-1.6312	6.74	0.75	-0.750			
0.5943	38036.55	3.4840	3.4836	-1.6412	6.74	0.75	-0.750			
0.5993	38355.96	3.4810	3.4808	-1.6375	6.75	0.76	-0.750			
0.6044	38678.60	3.4780	3.4781	-1.6424	6.75	0.76	-0.750			
0.6093	38992.05	3.4750	3.4751	-1.6121	6.75	0.76	-0.750			
0.6140	39294.00	3.4720	3.4718	-1.5671	6.76	0.77	-0.750			
0.6185	39585.22	3.4690	3.4688	-1.5374	6.78	0.79	-0.750			
0.6232	39887.75	3.4660	3.4661	-1.5381	6.79	0.80	-0.750			
0.6278	40179.16	3.4630	3.4628	-1.5154	6.80	0.81	-0.750			
0.6323	40467.12	3.4600	3.4599	-1.5009	6.81	0.82	-0.750			
0.6368	40755.58	3.4570	3.4571	-1.4776	6.81	0.82	-0.750			
0.6413	41043.12	3.4540	3.4539	-1.4698	6.82	0.83	-0.750			
0.6457	41321.63	3.4510	3.4509	-1.4489	6.83	0.84	-0.750			
0.6499	41593.13	3.4480	3.4481	-1.4181	6.84	0.85	-0.750			
0.6542	41868.11	3.4450	3.4449	-1.4085	6.85	0.86	-0.750			
0.6583	42133.05	3.4420	3.4419	-1.3871	6.86	0.87	-0.750			
0.6625	42398.36	3.4390	3.4390	-1.3541	6.88	0.89	-0.750			
0.6666	42661.05	3.4360	3.4359	-1.3281	6.89	0.90	-0.750			
0.6705	42914.66	3.4330	3.4329	-1.2932	6.90	0.91	-0.750			
0.6743	43156.62	3.4300	3.4301	-1.2568	6.91	0.92	-0.750			
0.6781	43395.95	3.4270	3.4269	-1.2284	6.92	0.93	-0.750			
0.6817	43625.78	3.4240	3.4240	-1.1957	6.93	0.94	-0.750			
0.6852	43849.97	3.4210	3.4210	-1.1659	6.94	0.95	-0.750			
0.6887	44076.26	3.4180	3.4180	-1.1525	6.95	0.96	-0.750			
0.6921	44297.03	3.4150	3.4149	-1.1277	6.97	0.98	-0.750			
0.6955	44510.17	3.4120	3.4120	-1.0977	6.98	0.99	-0.750			
0.6987	44717.69	3.4090	3.4091	-1.0676	6.99	1.00	-0.750			
0.7019	44921.14	3.4060	3.4060	-1.0414	7.01	1.02	-0.750			
0.7050	45118.55	3.4030	3.4030	-1.0113	7.02	1.03	-0.750			
0.7080	45309.35	3.4000	3.4000	-0.9759	7.03	1.04	-0.750			
0.7108	45493.87	3.3970	3.3971	-0.9550	7.04	1.05	-0.750			
0.7136	45672.35	3.3940	3.3941	-0.9319	7.05	1.06	-0.750			
0.7164	45849.07	3.3910	3.3909	-0.9036	7.06	1.07	-0.750			
0.7191	46019.99	3.3880	3.3880	-0.8813	7.07	1.08	-0.750			
0.7217	46188.12	3.3850	3.3851	-0.8525	7.09	1.10	-0.750			
0.7242	46349.98	3.3820	3.3820	-0.8252	7.10	1.11	-0.750			
0.7267	46507.22	3.3790	3.3790	-0.8008	7.11	1.12	-0.750			
0.7290	46655.69	3.3760	3.3759	-0.7706	7.11	1.12	-0.750			
0.7312	46799.34	3.3730	3.3730	-0.7616	7.12	1.13	-0.750			
0.7335	46944.16	3.3700	3.3700	-0.7433	7.13	1.14	-0.750			
