Ah_balance (normalized)	Ah_balance (mAh)	Voltage - fit (V)	Voltage -  interpolate (V)	dQ/dV (1/V)	Temperature (°C)	Temperature - diff (°C)	Current (C)	R_DC 0ms (mOhm)	R_DC 50ms (mOhm)	R_DC 50 ms PEC (mOhm)
0.1801	11524.02	4.0800	4.0801	0.8026	7.65	1.68	0.750			
0.1824	11675.02	4.0770	4.0771	0.7860	7.65	1.68	0.750			
0.1848	11825.64	4.0740	4.0740	0.7792	7.64	1.67	0.750			
0.1871	11973.97	4.0710	4.0710	0.7751	7.64	1.67	0.750			
0.1894	12119.71	4.0680	4.0680	0.7752	7.63	1.66	0.750			
0.1917	12269.77	4.0650	4.0649	0.7801	7.63	1.66	0.750			
0.1941	12419.81	4.0620	4.0620	0.7809	7.63	1.66	0.750			
0.1964	12571.73	4.0590	4.0591	0.7831	7.62	1.65	0.750			
0.1988	12721.04	4.0560	4.0561	0.7898	7.62	1.65	0.750			
0.2012	12874.02	4.0530	4.0530	0.7980	7.62	1.65	0.750			
0.2035	13026.28	4.0500	4.0499	0.7974	7.61	1.64	0.750			
0.2059	13179.48	4.0470	4.0470	0.8010	7.61	1.64	0.750			
0.2084	13337.95	4.0440	4.0441	0.7997	7.60	1.63	0.750			
0.2108	13489.60	4.0410	4.0411	0.8045	7.60	1.63	0.750			
0.2132	13643.64	4.0380	4.0380	0.8077	7.60	1.63	0.750			
0.2156	13796.72	4.0350	4.0350	0.8120	7.59	1.62	0.750			
0.2180	13952.34	4.0320	4.0319	0.8189	7.59	1.62	0.750			
0.2205	14114.66	4.0290	4.0290	0.8160	7.58	1.61	0.750			
0.2230	14272.02	4.0260	4.0261	0.8280	7.57	1.60	0.750			
0.2255	14430.73	4.0230	4.0230	0.8363	7.56	1.59	0.750			
0.2280	14589.37	4.0200	4.0201	0.8366	7.56	1.59	0.750			
0.2305	14754.32	4.0170	4.0171	0.8320	7.55	1.58	0.750			
0.2330	14913.48	4.0140	4.0141	0.8331	7.54	1.57	0.750			
0.2356	15079.57	4.0110	4.0110	0.8307	7.54	1.57	0.750			
0.2381	15236.60	4.0080	4.0081	0.8320	7.54	1.57	0.750			
0.2405	15393.98	4.0050	4.0052	0.8162	7.53	1.56	0.750			
0.2430	15549.76	4.0020	4.0022	0.8178	7.53	1.56	0.750			
0.2454	15706.65	3.9990	3.9994	0.8156	7.52	1.55	0.750			
0.2479	15865.26	3.9960	3.9965	0.8173	7.52	1.55	0.750			
0.2503	16018.99	3.9930	3.9938	0.8037	7.51	1.54	0.750			
0.2527	16169.87	3.9900	3.9910	0.8185	7.50	1.53	0.750			
0.2551	16326.90	3.9870	3.9880	0.8092	7.50	1.53	0.750			
0.2576	16483.51	3.9840	3.9846	0.8391	7.49	1.52	0.750			
0.2601	16643.28	3.9810	3.9822	0.8701	7.49	1.52	0.750			
0.2627	16813.87	3.9780	3.9786	0.9042	7.48	1.51	0.750			
0.2655	16993.54	3.9750	3.9759	0.9370	7.47	1.50	0.750			
0.2684	17176.34	3.9720	3.9726	0.9370	7.47	1.50	0.750			
0.2714	17370.03	3.9690	3.9692	0.9321	7.46	1.49	0.750			
0.2741	17545.26	3.9660	3.9661	0.9137	7.45	1.48	0.750			
0.2768	17712.85	3.9630	3.9631	0.8985	7.44	1.47	0.750			
0.2793	17878.02	3.9600	3.9596	0.8795	7.43	1.46	0.750			
0.2820	18047.08	3.9570	3.9570	0.8861	7.43	1.46	0.750			
0.2846	18216.50	3.9540	3.9542	0.8821	7.42	1.45	0.750			
0.2873	18387.58	3.9510	3.9511	0.8956	7.42	1.45	0.750			
0.2900	18562.79	3.9480	3.9481	0.9135	7.41	1.44	0.750			
0.2927	18731.90	3.9450	3.9447	0.9057	7.41	1.44	0.750			
0.2954	18907.19	3.9420	3.9421	0.9213	7.40	1.43	0.750			
0.2982	19087.15	3.9390	3.9390	0.9354	7.39	1.42	0.750			
0.3011	19271.86	3.9360	3.9360	0.9430	7.38	1.41	0.750			
0.3039	19452.37	3.9330	3.9330	0.9395	7.37	1.40	0.750			
0.3068	19634.76	3.9300	3.9300	0.9428	7.36	1.39	0.750			
0.3096	19816.08	3.9270	3.9270	0.9474	7.36	1.39	0.750			
0.3124	19994.83	3.9240	3.9240	0.9549	7.35	1.38	0.750			
0.3153	20177.82	3.9210	3.9211	0.9657	7.34	1.37	0.750			
0.3182	20365.84	3.9180	3.9179	0.9768	7.34	1.37	0.750			
0.3212	20554.68	3.9150	3.9150	0.9882	7.33	1.36	0.750			
0.3242	20746.85	3.9120	3.9121	0.9954	7.32	1.35	0.750			
0.3272	20939.75	3.9090	3.9091	1.0003	7.32	1.35	0.750			
0.3302	21132.14	3.9060	3.9062	1.0080	7.31	1.34	0.750			
0.3332	21325.45	3.9030	3.9030	1.0123	7.30	1.33	0.750			
0.3363	21520.47	3.9000	3.9000	1.0187	7.29	1.32	0.750			
0.3393	21715.47	3.8970	3.8971	1.0335	7.28	1.31	0.750			
0.3425	21917.56	3.8940	3.8940	1.0399	7.27	1.30	0.750			
0.3456	22117.09	3.8910	3.8910	1.0566	7.26	1.29	0.750			
0.3488	22320.01	3.8880	3.8879	1.0709	7.25	1.28	0.750			
0.3520	22526.41	3.8850	3.8851	1.0828	7.24	1.27	0.750			
0.3553	22739.11	3.8820	3.8818	1.0934	7.23	1.26	0.750			
0.3586	22948.54	3.8790	3.8790	1.1111	7.22	1.25	0.750			
0.3619	23161.69	3.8760	3.8761	1.1233	7.22	1.25	0.750			
0.3653	23381.47	3.8730	3.8730	1.1400	7.21	1.24	0.750			
0.3688	23600.27	3.8700	3.8701	1.1440	7.20	1.23	0.750			
0.3722	23821.72	3.8670	3.8671	1.1599	7.19	1.22	0.750			
0.3757	24046.89	3.8640	3.8641	1.1754	7.18	1.21	0.750			
0.3793	24274.70	3.8610	3.8606	1.1875	7.17	1.20	0.750			
0.3828	24498.75	3.8580	3.8581	1.2027	7.16	1.19	0.750			
0.3864	24731.99	3.8550	3.8551	1.2261	7.15	1.18	0.750			
0.3903	24977.55	3.8520	3.8518	1.2370	7.14	1.17	0.750			
0.3940	25214.60	3.8490	3.8490	1.2514	7.12	1.15	0.750			
0.3977	25455.06	3.8460	3.8461	1.2637	7.11	1.14	0.750			
0.4015	25694.28	3.8430	3.8431	1.3013	7.10	1.13	0.750			
0.4054	25943.50	3.8400	3.8397	1.3381	7.09	1.12	0.750			
0.4094	26202.63	3.8370	3.8371	1.3771	7.07	1.10	0.750			
0.4137	26476.69	3.8340	3.8342	1.4149	7.06	1.09	0.750	0.405	0.915	
0.4180	26754.58	3.8310	3.8312	1.4552	7.05	1.08	0.750			
0.4225	27039.53	3.8280	3.8280	1.4570	7.03	1.06	0.750			
0.4269	27323.98	3.8250	3.8250	1.4896	7.02	1.05	0.750			
0.4313	27604.72	3.8220	3.8221	1.4871	7.00	1.03	0.750			
0.4358	27894.36	3.8190	3.8189	1.4927	6.99	1.02	0.750			
0.4403	28178.31	3.8160	3.8162	1.5520	6.98	1.01	0.750			
0.4449	28475.29	3.8130	3.8132	1.5824	6.96	0.99	0.750			
0.4498	28784.02	3.8100	3.8099	1.6541	6.95	0.98	0.750			
0.4549	29114.91	3.8070	3.8072	1.6731	6.93	0.96	0.750			
0.4600	29441.66	3.8040	3.8039	1.7147	6.90	0.93	0.750			
0.4653	29778.23	3.8010	3.8011	1.7274	6.88	0.91	0.750			
0.4704	30104.36	3.7980	3.7978	1.7402	6.86	0.89	0.750			
0.4756	30441.00	3.7950	3.7951	1.7718	6.84	0.87	0.750			
0.4809	30780.23	3.7920	3.7920	1.8253	6.81	0.84	0.750			
0.4866	31142.50	3.7890	3.7890	1.8604	6.79	0.82	0.750			
0.4922	31497.79	3.7860	3.7858	1.8856	6.76	0.79	0.750			
0.4979	31868.68	3.7830	3.7828	1.9169	6.74	0.77	0.750			
0.5037	32236.27	3.7800	3.7801	1.9215	6.71	0.74	0.750			
0.5096	32612.52	3.7770	3.7770	1.9504	6.68	0.71	0.750			
0.5155	32993.63	3.7740	3.7739	1.9785	6.64	0.67	0.750			
0.5214	33368.99	3.7710	3.7711	2.0052	6.61	0.64	0.750			
0.5276	33763.71	3.7680	3.7679	2.0120	6.58	0.61	0.750			
0.5337	34154.08	3.7650	3.7651	2.0286	6.55	0.58	0.750			
0.5400	34558.52	3.7620	3.7620	1.9512	6.52	0.55	0.750			
0.5457	34921.81	3.7590	3.7591	1.8881	6.49	0.52	0.750			
0.5510	35263.48	3.7560	3.7566	1.8684	6.47	0.50	0.750			
0.5565	35614.84	3.7530	3.7526	1.9576	6.44	0.47	0.750			
0.5622	35981.04	3.7500	3.7503	2.0625	6.43	0.46	0.750			
0.5691	36422.33	3.7470	3.7472	2.2418	6.40	0.43	0.750			
0.5758	36849.23	3.7440	3.7439	2.2272	6.37	0.40	0.750			
0.5826	37283.51	3.7410	3.7413	2.3039	6.34	0.37	0.750			
0.5896	37735.15	3.7380	3.7379	2.4017	6.30	0.33	0.750			
0.5968	38196.41	3.7350	3.7351	2.4501	6.28	0.31	0.750			
0.6045	38689.02	3.7320	3.7321	2.5614	6.25	0.28	0.750			
0.6122	39182.47	3.7290	3.7290	2.5873	6.21	0.24	0.750			
0.6201	39683.65	3.7260	3.7260	2.5761	6.18	0.21	0.750			
0.6278	40180.45	3.7230	3.7230	2.5736	6.16	0.19	0.750			
0.6356	40679.04	3.7200	3.7200	2.6210	6.13	0.16	0.750			
0.6438	41202.71	3.7170	3.7170	2.5709	6.10	0.13	0.750			
0.6511	41672.09	3.7140	3.7142	2.3377	6.08	0.11	0.750			
0.6576	42087.90	3.7110	3.7106	2.0806	6.06	0.09	0.750			
0.6636	42470.04	3.7080	3.7080	1.8892	6.05	0.08	0.750			
0.6690	42813.60	3.7050	3.7047	1.7352	6.04	0.07	0.750			
0.6738	43120.74	3.7020	3.7022	1.5333	6.02	0.05	0.750			
0.6778	43379.25	3.6990	3.6991	1.3501	6.01	0.04	0.750			
0.6817	43626.97	3.6960	3.6960	1.2111	6.01	0.04	0.750			
0.6849	43834.33	3.6930	3.6930	1.0851	6.00	0.03	0.750			
0.6880	44029.02	3.6900	3.6900	1.0197	6.00	0.03	0.750			
0.6908	44212.73	3.6870	3.6874	0.9554	5.99	0.02	0.750			
0.6936	44389.97	3.6840	3.6840	0.9160	5.99	0.02	0.750			
0.6963	44564.30	3.6810	3.6809	0.8686	5.99	0.02	0.750			
0.6988	44724.78	3.6780	3.6782	0.8412	5.98	0.01	0.750			
0.7014	44887.98	3.6750	3.6751	0.8263	5.98	0.01	0.750			
0.7037	45039.72	3.6720	3.6720	0.7875	5.98	0.01	0.750			
0.7061	45189.02	3.6690	3.6693	0.7526	5.98	0.01	0.750			
0.7083	45330.49	3.6660	3.6661	0.7189	5.98	0.01	0.750			
0.7104	45467.01	3.6630	3.6631	0.6778	5.98	0.01	0.750			
0.7124	45596.49	3.6600	3.6599	0.6415	5.97	0.00	0.750			
0.7143	45712.41	3.6570	3.6570	0.5942	5.97	0.00	0.750			
0.7160	45821.23	3.6540	3.6539	0.5527	5.97	0.00	0.750			
0.7176	45923.39	3.6510	3.6510	0.5144	5.97	-0.00	0.750			
0.7190	46018.93	3.6480	3.6480	0.4796	5.97	-0.00	0.750			
0.7204	46107.35	3.6450	3.6450	0.4399	5.97	-0.00	0.750			
0.7217	46188.64	3.6420	3.6420	0.4037	5.97	-0.00	0.750			
0.7228	46261.02	3.6390	3.6391	0.3659	5.97	-0.00	0.750			
0.7239	46328.20	3.6360	3.6358	0.3318	5.96	-0.01	0.750			
0.7248	46388.20	3.6330	3.6330	0.2969	5.96	-0.01	0.750			
0.7257	46443.01	3.6300	3.6300	0.2612	5.96	-0.01	0.750			
0.7264	46490.10	3.6270	3.6270	0.2265	5.96	-0.01	0.750			
0.7271	46531.43	3.6240	3.6239	0.1929	5.96	-0.01	0.750			
0.7276	46564.34	3.6210	3.6211	0.1538	5.96	-0.01	0.750			
0.7280	46590.34	3.6180	3.6184	0.1157	5.96	-0.01	0.750			
0.7283	46608.85	3.6150	3.6158	0.0772	5.96	-0.01	0.750			
0.7285	46621.35	3.6120	3.6124	0.0346	5.96	-0.01	0.750			
0.7285	46623.95	3.6090	3.6109	-0.0075	5.96	-0.01	0.750			
