Ah_balance (normalized)	Ah_balance (mAh)	Voltage - fit (V)	Voltage -  interpolate (V)	dQ/dV (1/V)	Temperature (°C)	Temperature - diff (°C)	Current (C)	R_DC 0ms (mOhm)	R_DC 50ms (mOhm)	R_DC 50 ms PEC (mOhm)
0.0946	6054.55	4.0020	4.0015	-0.0739	5.97	-0.01	-0.750			
0.0949	6072.62	3.9990	3.9988	-0.1049	5.97	-0.01	-0.750			
0.0952	6095.42	3.9960	3.9959	-0.1326	5.97	-0.01	-0.750			
0.0957	6123.93	3.9930	3.9930	-0.1583	5.97	-0.01	-0.750			
0.0962	6157.00	3.9900	3.9902	-0.1831	5.97	-0.01	-0.750			
0.0968	6195.78	3.9870	3.9870	-0.2087	5.97	-0.01	-0.750			
0.0975	6237.90	3.9840	3.9840	-0.2316	5.97	-0.01	-0.750			
0.0982	6284.15	3.9810	3.9810	-0.2562	5.98	-0.00	-0.750			
0.0990	6335.60	3.9780	3.9780	-0.2781	5.98	-0.00	-0.750			
0.0999	6391.21	3.9750	3.9750	-0.3023	5.98	-0.00	-0.750			
0.1008	6451.90	3.9720	3.9720	-0.3249	5.98	-0.00	-0.750			
0.1018	6516.74	3.9690	3.9689	-0.3474	5.98	-0.00	-0.750			
0.1029	6585.58	3.9660	3.9660	-0.3711	5.98	-0.00	-0.750			
0.1040	6658.95	3.9630	3.9631	-0.3941	5.98	-0.00	-0.750			
0.1053	6736.54	3.9600	3.9599	-0.4160	5.98	0.00	-0.750			
0.1065	6819.09	3.9570	3.9570	-0.4400	5.98	0.00	-0.750			
0.1079	6905.56	3.9540	3.9540	-0.4606	5.98	0.00	-0.750			
0.1093	6996.42	3.9510	3.9510	-0.4822	5.98	0.00	-0.750			
0.1108	7091.18	3.9480	3.9480	-0.5051	5.99	0.01	-0.750			
0.1124	7191.06	3.9450	3.9450	-0.5211	5.99	0.01	-0.750			
0.1140	7293.60	3.9420	3.9419	-0.5376	5.99	0.01	-0.750			
0.1156	7398.31	3.9390	3.9390	-0.5539	5.99	0.01	-0.750			
0.1173	7506.27	3.9360	3.9361	-0.5685	5.99	0.01	-0.750			
0.1190	7617.03	3.9330	3.9329	-0.5810	5.99	0.01	-0.750			
0.1208	7729.57	3.9300	3.9300	-0.5933	5.99	0.01	-0.750			
0.1226	7844.49	3.9270	3.9271	-0.6051	5.99	0.01	-0.750			
0.1244	7963.59	3.9240	3.9239	-0.6190	5.99	0.01	-0.750			
0.1263	8084.40	3.9210	3.9210	-0.6265	5.99	0.01	-0.750			
0.1282	8204.74	3.9180	3.9180	-0.6362	5.99	0.01	-0.750			
0.1301	8328.51	3.9150	3.9150	-0.6444	5.99	0.01	-0.750			
0.1321	8453.10	3.9120	3.9119	-0.6528	6.00	0.02	-0.750			
0.1340	8578.25	3.9090	3.9091	-0.6581	6.01	0.03	-0.750			
0.1360	8706.01	3.9060	3.9060	-0.6634	6.01	0.03	-0.750			
0.1380	8835.11	3.9030	3.9030	-0.6686	6.02	0.04	-0.750			
0.1401	8964.24	3.9000	3.9000	-0.6726	6.03	0.05	-0.750			
0.1421	9092.42	3.8970	3.8971	-0.6770	6.03	0.05	-0.750			
0.1441	9223.36	3.8940	3.8939	-0.6809	6.04	0.06	-0.750			
0.1461	9352.94	3.8910	3.8910	-0.6854	6.04	0.06	-0.750			
0.1482	9484.69	3.8880	3.8881	-0.6932	6.05	0.07	-0.750			
0.1503	9620.46	3.8850	3.8850	-0.7014	6.06	0.08	-0.750			
0.1524	9755.06	3.8820	3.8818	-0.7053	6.06	0.08	-0.750			
0.1545	9890.83	3.8790	3.8792	-0.7090	6.07	0.09	-0.750			
0.1567	10027.57	3.8760	3.8761	-0.7128	6.07	0.09	-0.750			
0.1588	10166.07	3.8730	3.8729	-0.7191	6.08	0.10	-0.750			
0.1610	10304.53	3.8700	3.8700	-0.7166	6.08	0.10	-0.750			
0.1631	10441.10	3.8670	3.8670	-0.7152	6.08	0.10	-0.750			
0.1653	10578.46	3.8640	3.8640	-0.7148	6.09	0.11	-0.750			
0.1674	10715.74	3.8610	3.8610	-0.7141	6.09	0.11	-0.750			
0.1696	10852.78	3.8580	3.8580	-0.7154	6.10	0.12	-0.750			
0.1717	10989.31	3.8550	3.8549	-0.7196	6.11	0.13	-0.750			
0.1739	11127.68	3.8520	3.8520	-0.7228	6.12	0.14	-0.750			
0.1761	11268.68	3.8490	3.8490	-0.7256	6.13	0.15	-0.750			
0.1783	11408.30	3.8460	3.8459	-0.7264	6.14	0.16	-0.750			
0.1804	11548.30	3.8430	3.8429	-0.7245	6.14	0.16	-0.750			
0.1826	11686.52	3.8400	3.8399	-0.7217	6.15	0.17	-0.750			
0.1847	11823.06	3.8370	3.8371	-0.7276	6.16	0.18	-0.750			
0.1869	11961.74	3.8340	3.8340	-0.7305	6.17	0.19	-0.750			
0.1891	12105.04	3.8310	3.8308	-0.7347	6.17	0.19	-0.750			
0.1914	12247.28	3.8280	3.8282	-0.7373	6.18	0.20	-0.750			
0.1936	12390.24	3.8250	3.8250	-0.7358	6.19	0.21	-0.750			
0.1958	12531.62	3.8220	3.8219	-0.7338	6.19	0.21	-0.750			
0.1980	12671.71	3.8190	3.8190	-0.7351	6.20	0.22	-0.750			
0.2002	12810.55	3.8160	3.8160	-0.7294	6.21	0.23	-0.750			
0.2024	12952.12	3.8130	3.8129	-0.7322	6.21	0.23	-0.750			
0.2046	13093.15	3.8100	3.8101	-0.7317	6.22	0.24	-0.750			
0.2068	13233.31	3.8070	3.8070	-0.7322	6.23	0.25	-0.750			
0.2090	13373.25	3.8040	3.8040	-0.7384	6.24	0.26	-0.750			
0.2112	13515.12	3.8010	3.8010	-0.7365	6.25	0.27	-0.750			
0.2134	13657.57	3.7980	3.7979	-0.7414	6.26	0.28	-0.750			
0.2156	13800.52	3.7950	3.7949	-0.7437	6.27	0.29	-0.750			
0.2179	13943.90	3.7920	3.7920	-0.7449	6.27	0.29	-0.750			
0.2201	14087.21	3.7890	3.7889	-0.7438	6.28	0.30	-0.750			
0.2223	14228.57	3.7860	3.7861	-0.7477	6.29	0.31	-0.750			
0.2246	14372.13	3.7830	3.7830	-0.7464	6.30	0.32	-0.750			
0.2268	14517.99	3.7800	3.7799	-0.7509	6.30	0.32	-0.750			
0.2291	14661.66	3.7770	3.7773	-0.7526	6.31	0.33	-0.750			
0.2313	14805.97	3.7740	3.7740	-0.7567	6.32	0.34	-0.750			
0.2336	14951.40	3.7710	3.7709	-0.7610	6.33	0.35	-0.750			
0.2359	15098.16	3.7680	3.7679	-0.7622	6.34	0.36	-0.750			
0.2382	15244.99	3.7650	3.7651	-0.7628	6.35	0.37	-0.750			
0.2405	15392.26	3.7620	3.7620	-0.7621	6.36	0.38	-0.750			
0.2428	15538.00	3.7590	3.7591	-0.7673	6.37	0.39	-0.750			
0.2450	15682.94	3.7560	3.7560	-0.7747	6.38	0.40	-0.750			
0.2474	15830.75	3.7530	3.7529	-0.7780	6.39	0.41	-0.750			
0.2497	15982.96	3.7500	3.7500	-0.7845	6.40	0.42	-0.750			
0.2521	16135.04	3.7470	3.7470	-0.7932	6.40	0.42	-0.750			
0.2545	16290.84	3.7440	3.7442	-0.7986	6.41	0.43	-0.750			
0.2569	16444.35	3.7410	3.7410	-0.7978	6.42	0.44	-0.750			
0.2593	16595.22	3.7380	3.7379	-0.8016	6.43	0.45	-0.750			
0.2617	16750.42	3.7350	3.7351	-0.8053	6.43	0.45	-0.750			
0.2642	16906.46	3.7320	3.7318	-0.8105	6.44	0.46	-0.750			
0.2666	17061.71	3.7290	3.7293	-0.8133	6.45	0.47	-0.750			
0.2690	17217.89	3.7260	3.7260	-0.8169	6.46	0.48	-0.750			
0.2715	17375.18	3.7230	3.7230	-0.8275	6.47	0.49	-0.750			
0.2740	17534.39	3.7200	3.7200	-0.8303	6.47	0.49	-0.750			
0.2765	17695.14	3.7170	3.7169	-0.8426	6.48	0.50	-0.750			
0.2790	17857.68	3.7140	3.7142	-0.8477	6.49	0.51	-0.750			
0.2816	18022.08	3.7110	3.7109	-0.8532	6.50	0.52	-0.750			
0.2841	18185.38	3.7080	3.7080	-0.8623	6.50	0.52	-0.750			
0.2868	18352.09	3.7050	3.7050	-0.8618	6.51	0.53	-0.750			
0.2894	18518.61	3.7020	3.7020	-0.8694	6.51	0.53	-0.750			
0.2920	18685.41	3.6990	3.6992	-0.8760	6.52	0.54	-0.750			
0.2946	18852.04	3.6960	3.6959	-0.8840	6.53	0.55	-0.750			
0.2973	19024.21	3.6930	3.6929	-0.8899	6.53	0.55	-0.750			
0.2999	19194.58	3.6900	3.6900	-0.8983	6.54	0.56	-0.750			
0.3026	19368.14	3.6870	3.6870	-0.9093	6.55	0.57	-0.750			
0.3054	19545.79	3.6840	3.6840	-0.9169	6.55	0.57	-0.750			
0.3082	19721.95	3.6810	3.6809	-0.9283	6.56	0.58	-0.750			
0.3110	19902.20	3.6780	3.6779	-0.9295	6.56	0.58	-0.750			
0.3138	20081.14	3.6750	3.6750	-0.9329	6.57	0.59	-0.750			
0.3166	20260.92	3.6720	3.6725	-0.9437	6.57	0.59	-0.750			
0.3194	20440.64	3.6690	3.6689	-0.9515	6.57	0.59	-0.750			
0.3223	20624.31	3.6660	3.6659	-0.9609	6.58	0.60	-0.750			
0.3252	20810.05	3.6630	3.6629	-0.9653	6.58	0.60	-0.750			
0.3281	20998.02	3.6600	3.6601	-0.9819	6.59	0.61	-0.750			
0.3311	21187.27	3.6570	3.6570	-0.9873	6.59	0.61	-0.750			
0.3340	21377.13	3.6540	3.6540	-0.9918	6.60	0.62	-0.750			
0.3370	21567.81	3.6510	3.6509	-0.9925	6.60	0.62	-0.750			
0.3400	21757.19	3.6480	3.6480	-0.9946	6.61	0.63	-0.750			
0.3429	21948.04	3.6450	3.6451	-1.0138	6.61	0.63	-0.750			
0.3460	22144.22	3.6420	3.6420	-1.0227	6.61	0.63	-0.750			
0.3491	22340.26	3.6390	3.6389	-1.0317	6.62	0.64	-0.750			
0.3522	22539.84	3.6360	3.6360	-1.0421	6.62	0.64	-0.750			
0.3553	22741.39	3.6330	3.6331	-1.0644	6.62	0.64	-0.750			
0.3586	22950.35	3.6300	3.6300	-1.0724	6.62	0.64	-0.750			
0.3618	23156.56	3.6270	3.6269	-1.0770	6.63	0.65	-0.750			
0.3650	23362.39	3.6240	3.6241	-1.0737	6.63	0.65	-0.750			
0.3683	23571.15	3.6210	3.6209	-1.0925	6.63	0.65	-0.750			
0.3716	23781.40	3.6180	3.6180	-1.0940	6.64	0.66	-0.750			
0.3749	23991.47	3.6150	3.6148	-1.0976	6.64	0.66	-0.750			
0.3781	24200.65	3.6120	3.6121	-1.1029	6.65	0.67	-0.750			
0.3815	24415.75	3.6090	3.6090	-1.1233	6.65	0.67	-0.750			
0.3849	24631.46	3.6060	3.6059	-1.1310	6.65	0.67	-0.750			
0.3883	24849.82	3.6030	3.6030	-1.1432	6.65	0.67	-0.750			
0.3917	25066.72	3.6000	3.6002	-1.1516	6.65	0.67	-0.750			
0.3952	25295.08	3.5970	3.5969	-1.1677	6.66	0.68	-0.750			
0.3988	25520.12	3.5940	3.5940	-1.1709	6.66	0.68	-0.750			
0.4022	25743.53	3.5910	3.5908	-1.1753	6.67	0.69	-0.750			
0.4058	25970.73	3.5880	3.5880	-1.1906	6.67	0.69	-0.750	0.465	1.061	
0.4094	26199.73	3.5850	3.5849	-1.2003	6.67	0.69	-0.750			
0.4130	26429.10	3.5820	3.5819	-1.2101	6.67	0.69	-0.750			
0.4166	26661.62	3.5790	3.5792	-1.2179	6.67	0.69	-0.750			
0.4203	26902.10	3.5760	3.5759	-1.2396	6.67	0.69	-0.750			
0.4241	27140.29	3.5730	3.5730	-1.2472	6.68	0.70	-0.750			
0.4278	27377.82	3.5700	3.5700	-1.2613	6.68	0.70	-0.750			
0.4316	27623.37	3.5670	3.5670	-1.2775	6.68	0.70	-0.750			
0.4355	27869.50	3.5640	3.5640	-1.2862	6.69	0.71	-0.750			
0.4393	28115.49	3.5610	3.5610	-1.3017	6.69	0.71	-0.750			
0.4432	28367.83	3.5580	3.5581	-1.3172	6.69	0.71	-0.750			
0.4473	28625.53	3.5550	3.5549	-1.3287	6.69	0.71	-0.750			
0.4512	28878.30	3.5520	3.5519	-1.3465	6.69	0.71	-0.750			
0.4553	29138.23	3.5490	3.5491	-1.3510	6.69	0.71	-0.750			
0.4594	29401.93	3.5460	3.5460	-1.3647	6.70	0.72	-0.750			
0.4635	29663.63	3.5430	3.5429	-1.3795	6.71	0.73	-0.750			
0.4676	29928.52	3.5400	3.5401	-1.3785	6.71	0.73	-0.750			
0.4718	30196.37	3.5370	3.5370	-1.3918	6.71	0.73	-0.750			
0.4760	30462.56	3.5340	3.5339	-1.4111	6.72	0.74	-0.750			
0.4802	30732.58	3.5310	3.5311	-1.4121	6.72	0.74	-0.750			
0.4845	31010.03	3.5280	3.5280	-1.4342	6.72	0.74	-0.750			
0.4888	31286.01	3.5250	3.5249	-1.4486	6.73	0.75	-0.750			
0.4932	31563.98	3.5220	3.5221	-1.4526	6.73	0.75	-0.750			
0.4977	31849.76	3.5190	3.5189	-1.4655	6.74	0.76	-0.750			
0.5020	32129.44	3.5160	3.5158	-1.4707	6.76	0.78	-0.750			
0.5064	32410.32	3.5130	3.5130	-1.4667	6.76	0.78	-0.750			
0.5109	32695.84	3.5100	3.5099	-1.4774	6.77	0.79	-0.750			
0.5153	32978.91	3.5070	3.5069	-1.4860	6.77	0.79	-0.750			
0.5197	33262.52	3.5040	3.5040	-1.4911	6.78	0.80	-0.750			
0.5243	33556.56	3.5010	3.5009	-1.5038	6.78	0.80	-0.750			
0.5289	33847.51	3.4980	3.4982	-1.5092	6.79	0.81	-0.750			
0.5334	34136.67	3.4950	3.4952	-1.4990	6.79	0.81	-0.750			
0.5379	34426.54	3.4920	3.4918	-1.5107	6.80	0.82	-0.750			
0.5425	34718.25	3.4890	3.4890	-1.5040	6.80	0.82	-0.750			
0.5470	35005.93	3.4860	3.4859	-1.4958	6.81	0.83	-0.750			
0.5514	35288.71	3.4830	3.4830	-1.4959	6.82	0.84	-0.750			
0.5559	35579.87	3.4800	3.4800	-1.5034	6.82	0.84	-0.750			
0.5604	35868.35	3.4770	3.4768	-1.4978	6.84	0.86	-0.750			
0.5649	36156.03	3.4740	3.4738	-1.4974	6.85	0.87	-0.750			
0.5694	36438.75	3.4710	3.4709	-1.4994	6.86	0.88	-0.750			
0.5740	36733.49	3.4680	3.4680	-1.5002	6.87	0.89	-0.750			
0.5785	37022.91	3.4650	3.4651	-1.4850	6.88	0.90	-0.750			
0.5829	37304.30	3.4620	3.4620	-1.4623	6.89	0.91	-0.750			
0.5873	37584.60	3.4590	3.4590	-1.4529	6.90	0.92	-0.750			
0.5916	37864.16	3.4560	3.4560	-1.4525	6.91	0.93	-0.750			
0.5959	38139.23	3.4530	3.4530	-1.4382	6.92	0.94	-0.750			
0.6002	38415.70	3.4500	3.4499	-1.4256	6.94	0.96	-0.750			
0.6046	38696.02	3.4470	3.4471	-1.4222	6.95	0.97	-0.750			
0.6090	38973.21	3.4440	3.4439	-1.4089	6.97	0.99	-0.750			
0.6131	39239.26	3.4410	3.4409	-1.3787	6.98	1.00	-0.750			
0.6172	39499.98	3.4380	3.4383	-1.3465	6.99	1.01	-0.750			
0.6212	39754.06	3.4350	3.4349	-1.3287	7.00	1.02	-0.750			
0.6251	40004.76	3.4320	3.4319	-1.3074	7.02	1.04	-0.750			
0.6289	40248.39	3.4290	3.4291	-1.2760	7.03	1.05	-0.750			
0.6329	40504.01	3.4260	3.4260	-1.2807	7.04	1.06	-0.750			
0.6367	40747.65	3.4230	3.4230	-1.2593	7.05	1.07	-0.750			
0.6404	40987.69	3.4200	3.4200	-1.2329	7.07	1.09	-0.750			
0.6441	41223.14	3.4170	3.4169	-1.2057	7.08	1.10	-0.750			
0.6477	41451.14	3.4140	3.4139	-1.1716	7.09	1.11	-0.750			
0.6511	41673.48	3.4110	3.4111	-1.1426	7.10	1.12	-0.750			
0.6545	41888.10	3.4080	3.4082	-1.1201	7.11	1.13	-0.750			
0.6578	42102.17	3.4050	3.4049	-1.0956	7.13	1.15	-0.750			
0.6611	42308.15	3.4020	3.4019	-1.0620	7.15	1.17	-0.750			
0.6642	42507.94	3.3990	3.3991	-1.0379	7.17	1.19	-0.750			
0.6673	42709.96	3.3960	3.3961	-1.0193	7.18	1.20	-0.750			
0.6703	42900.98	3.3930	3.3929	-0.9894	7.20	1.22	-0.750			
0.6732	43087.52	3.3900	3.3900	-0.9592	7.21	1.23	-0.750			
0.6761	43268.50	3.3870	3.3870	-0.9296	7.23	1.25	-0.750			
0.6788	43445.11	3.3840	3.3842	-0.9103	7.24	1.26	-0.750			
0.6815	43617.08	3.3810	3.3809	-0.8889	7.25	1.27	-0.750			
0.6841	43782.71	3.3780	3.3780	-0.8701	7.26	1.28	-0.750			
0.6867	43950.16	3.3750	3.3749	-0.8474	7.28	1.30	-0.750			
0.6892	44109.92	3.3720	3.3720	-0.8277	7.29	1.31	-0.750			
0.6917	44269.85	3.3690	3.3692	-0.8082	7.30	1.32	-0.750			
0.6941	44423.02	3.3660	3.3659	-0.7841	7.31	1.33	-0.750			
0.6964	44568.88	3.3630	3.3630	-0.7645	7.33	1.35	-0.750			
0.6986	44712.99	3.3600	3.3600	-0.7501	7.34	1.36	-0.750			
0.7009	44854.86	3.3570	3.3570	-0.7351	7.35	1.37	-0.750			
0.7031	44995.94	3.3540	3.3539	-0.7182	7.36	1.38	-0.750			
0.7052	45131.35	3.3510	3.3510	-0.6998	7.38	1.40	-0.750			
0.7073	45265.73	3.3480	3.3481	-0.6842	7.39	1.41	-0.750			
0.7093	45394.75	3.3450	3.3448	-0.6636	7.40	1.42	-0.750			
0.7112	45519.06	3.3420	3.3421	-0.6537	7.41	1.43	-0.750			
0.7132	45643.38	3.3390	3.3390	-0.6399	7.42	1.44	-0.750			
