Ah_balance (normalized)	Ah_balance (mAh)	Voltage - fit (V)	Voltage -  interpolate (V)	dQ/dV (1/V)	Temperature (°C)	Temperature - diff (°C)	Current (C)	R_DC 0ms (mOhm)	R_DC 50ms (mOhm)	R_DC 50 ms PEC (mOhm)
0.1829	11708.54	4.0800	4.0800	0.8001	7.23	1.24	0.750			
0.1854	11862.54	4.0770	4.0770	0.8010	7.23	1.24	0.750			
0.1878	12017.86	4.0740	4.0741	0.7984	7.22	1.23	0.750			
0.1901	12168.50	4.0710	4.0710	0.7992	7.22	1.23	0.750			
0.1925	12322.54	4.0680	4.0680	0.8016	7.22	1.23	0.750			
0.1949	12473.75	4.0650	4.0651	0.8028	7.21	1.22	0.750			
0.1973	12629.24	4.0620	4.0619	0.8091	7.21	1.22	0.750			
0.1998	12786.52	4.0590	4.0591	0.8108	7.21	1.22	0.750			
0.2022	12942.94	4.0560	4.0560	0.8158	7.21	1.22	0.750			
0.2047	13100.07	4.0530	4.0531	0.8175	7.21	1.22	0.750			
0.2071	13255.79	4.0500	4.0501	0.8186	7.21	1.22	0.750			
0.2096	13413.28	4.0470	4.0469	0.8238	7.21	1.22	0.750			
0.2121	13572.19	4.0440	4.0440	0.8249	7.21	1.22	0.750			
0.2146	13731.55	4.0410	4.0410	0.8329	7.20	1.21	0.750			
0.2171	13892.22	4.0380	4.0380	0.8351	7.20	1.21	0.750			
0.2196	14052.61	4.0350	4.0350	0.8394	7.19	1.20	0.750			
0.2221	14214.98	4.0320	4.0319	0.8411	7.19	1.20	0.750			
0.2247	14378.75	4.0290	4.0289	0.8347	7.19	1.20	0.750			
0.2272	14538.91	4.0260	4.0260	0.8369	7.18	1.19	0.750			
0.2297	14698.56	4.0230	4.0231	0.8375	7.18	1.19	0.750			
0.2321	14856.95	4.0200	4.0201	0.8406	7.17	1.18	0.750			
0.2347	15018.59	4.0170	4.0169	0.8456	7.17	1.18	0.750			
0.2372	15181.63	4.0140	4.0140	0.8448	7.17	1.18	0.750			
0.2398	15346.67	4.0110	4.0111	0.8542	7.17	1.18	0.750			
0.2424	15510.83	4.0080	4.0081	0.8572	7.16	1.17	0.750			
0.2449	15675.09	4.0050	4.0049	0.8566	7.16	1.17	0.750			
0.2475	15839.10	4.0020	4.0021	0.8581	7.16	1.17	0.750			
0.2501	16004.66	3.9990	3.9990	0.8594	7.16	1.17	0.750			
0.2527	16170.76	3.9960	3.9961	0.8630	7.16	1.17	0.750			
0.2553	16336.99	3.9930	3.9930	0.8658	7.15	1.16	0.750			
0.2579	16502.54	3.9900	3.9901	0.8684	7.15	1.16	0.750			
0.2605	16668.94	3.9870	3.9870	0.8701	7.15	1.16	0.750			
0.2631	16835.36	3.9840	3.9840	0.8733	7.14	1.15	0.750			
0.2657	17004.05	3.9810	3.9810	0.8794	7.14	1.15	0.750			
0.2683	17173.86	3.9780	3.9780	0.8855	7.14	1.15	0.750			
0.2710	17343.67	3.9750	3.9749	0.8883	7.13	1.14	0.750			
0.2737	17516.08	3.9720	3.9720	0.8895	7.13	1.14	0.750			
0.2764	17686.62	3.9690	3.9690	0.8938	7.12	1.13	0.750			
0.2790	17857.23	3.9660	3.9660	0.9034	7.11	1.12	0.750			
0.2817	18031.46	3.9630	3.9630	0.9103	7.11	1.12	0.750			
0.2845	18206.83	3.9600	3.9598	0.9141	7.10	1.11	0.750			
0.2872	18383.85	3.9570	3.9571	0.9160	7.09	1.10	0.750			
0.2900	18560.47	3.9540	3.9540	0.9226	7.09	1.10	0.750			
0.2928	18737.66	3.9510	3.9510	0.9266	7.08	1.09	0.750			
0.2955	18914.26	3.9480	3.9480	0.9267	7.07	1.08	0.750			
0.2983	19093.73	3.9450	3.9450	0.9264	7.07	1.08	0.750			
0.3011	19272.37	3.9420	3.9420	0.9364	7.07	1.08	0.750			
0.3039	19452.52	3.9390	3.9391	0.9437	7.06	1.07	0.750			
0.3068	19634.38	3.9360	3.9360	0.9512	7.06	1.07	0.750			
0.3096	19815.88	3.9330	3.9329	0.9597	7.06	1.07	0.750			
0.3125	20001.62	3.9300	3.9300	0.9646	7.05	1.06	0.750			
0.3154	20186.78	3.9270	3.9271	0.9736	7.05	1.06	0.750			
0.3184	20375.22	3.9240	3.9240	0.9858	7.05	1.06	0.750			
0.3213	20564.84	3.9210	3.9208	0.9902	7.04	1.05	0.750			
0.3243	20756.05	3.9180	3.9181	0.9975	7.03	1.04	0.750			
0.3273	20948.77	3.9150	3.9151	1.0058	7.03	1.04	0.750			
0.3303	21142.07	3.9120	3.9120	1.0168	7.02	1.03	0.750			
0.3334	21338.35	3.9090	3.9089	1.0225	7.01	1.02	0.750			
0.3365	21536.13	3.9060	3.9060	1.0270	7.00	1.01	0.750			
0.3396	21733.42	3.9030	3.9030	1.0365	7.00	1.01	0.750			
0.3427	21933.10	3.9000	3.9002	1.0521	6.99	1.00	0.750			
0.3459	22136.02	3.8970	3.8969	1.0648	6.98	0.99	0.750			
0.3491	22340.97	3.8940	3.8940	1.0733	6.97	0.98	0.750			
0.3523	22547.99	3.8910	3.8910	1.0865	6.97	0.98	0.750			
0.3556	22757.92	3.8880	3.8881	1.1081	6.96	0.97	0.750			
0.3590	22974.82	3.8850	3.8848	1.1189	6.95	0.96	0.750			
0.3623	23189.66	3.8820	3.8820	1.1269	6.94	0.95	0.750			
0.3657	23406.23	3.8790	3.8790	1.1409	6.93	0.94	0.750			
0.3692	23626.67	3.8760	3.8761	1.1558	6.93	0.94	0.750			
0.3727	23849.62	3.8730	3.8730	1.1621	6.92	0.93	0.750			
0.3761	24072.88	3.8700	3.8700	1.1822	6.91	0.92	0.750			
0.3797	24299.28	3.8670	3.8671	1.2008	6.90	0.91	0.750			
0.3834	24534.92	3.8640	3.8639	1.2203	6.89	0.90	0.750			
0.3870	24770.83	3.8610	3.8609	1.2425	6.88	0.89	0.750			
0.3908	25010.46	3.8580	3.8581	1.2651	6.87	0.88	0.750			
0.3947	25257.75	3.8550	3.8550	1.2889	6.86	0.87	0.750			
0.3986	25508.28	3.8520	3.8520	1.3078	6.84	0.85	0.750			
0.4025	25759.75	3.8490	3.8490	1.3166	6.83	0.84	0.750			
0.4065	26013.24	3.8460	3.8462	1.3566	6.82	0.83	0.750			
0.4106	26276.44	3.8430	3.8429	1.3929	6.81	0.82	0.750			
0.4148	26546.42	3.8400	3.8398	1.4204	6.80	0.81	0.750			
0.4191	26824.55	3.8370	3.8372	1.4414	6.79	0.80	0.750	0.423	0.998	
0.4235	27106.03	3.8340	3.8341	1.4617	6.78	0.79	0.750			
0.4280	27391.33	3.8310	3.8311	1.5006	6.76	0.77	0.750			
0.4325	27680.94	3.8280	3.8279	1.5220	6.75	0.76	0.750			
0.4370	27968.64	3.8250	3.8249	1.5428	6.73	0.74	0.750			
0.4417	28269.35	3.8220	3.8222	1.5807	6.71	0.72	0.750			
0.4465	28576.95	3.8190	3.8189	1.6244	6.69	0.70	0.750			
0.4515	28897.33	3.8160	3.8159	1.6326	6.67	0.68	0.750			
0.4564	29210.23	3.8130	3.8130	1.6715	6.66	0.67	0.750			
0.4615	29535.62	3.8100	3.8101	1.7228	6.64	0.65	0.750			
0.4668	29872.17	3.8070	3.8068	1.7429	6.63	0.64	0.750			
0.4720	30204.84	3.8040	3.8043	1.7901	6.61	0.62	0.750			
0.4774	30554.13	3.8010	3.8011	1.8220	6.59	0.60	0.750			
0.4830	30910.94	3.7980	3.7979	1.8588	6.57	0.58	0.750			
0.4885	31263.60	3.7950	3.7951	1.8930	6.56	0.57	0.750			
0.4943	31633.53	3.7920	3.7920	1.9515	6.54	0.55	0.750			
0.5002	32012.47	3.7890	3.7889	2.0325	6.52	0.53	0.750			
0.5065	32418.25	3.7860	3.7863	2.0447	6.50	0.51	0.750			
0.5127	32813.11	3.7830	3.7831	2.0644	6.48	0.49	0.750			
0.5188	33205.72	3.7800	3.7798	2.0724	6.46	0.47	0.750			
0.5251	33605.79	3.7770	3.7772	2.1322	6.44	0.45	0.750			
0.5314	34012.01	3.7740	3.7741	2.1476	6.41	0.42	0.750			
0.5380	34431.91	3.7710	3.7711	2.2683	6.38	0.39	0.750			
0.5450	34878.17	3.7680	3.7678	2.2603	6.36	0.37	0.750			
0.5518	35314.51	3.7650	3.7653	2.3098	6.33	0.34	0.750			
0.5592	35791.90	3.7620	3.7616	2.2681	6.31	0.32	0.750			
0.5657	36201.61	3.7590	3.7593	2.1101	6.28	0.29	0.750			
0.5717	36589.28	3.7560	3.7565	2.0949	6.26	0.27	0.750			
0.5775	36959.91	3.7530	3.7527	2.0916	6.25	0.26	0.750			
0.5837	37357.11	3.7500	3.7501	2.2985	6.23	0.24	0.750			
0.5914	37850.92	3.7470	3.7467	2.4731	6.20	0.21	0.750			
0.5989	38328.52	3.7440	3.7441	2.5646	6.17	0.18	0.750			
0.6068	38835.01	3.7410	3.7408	2.6672	6.16	0.17	0.750			
0.6149	39353.08	3.7380	3.7379	2.8243	6.13	0.14	0.750			
0.6236	39911.81	3.7350	3.7351	2.9386	6.10	0.11	0.750			
0.6328	40501.82	3.7320	3.7319	3.0502	6.07	0.08	0.750			
0.6419	41080.30	3.7290	3.7290	3.1169	6.06	0.07	0.750			
0.6517	41707.90	3.7260	3.7259	3.1865	6.04	0.05	0.750			
0.6616	42342.00	3.7230	3.7228	3.1367	6.02	0.03	0.750			
0.6704	42906.44	3.7200	3.7199	2.8898	6.00	0.01	0.750			
0.6786	43428.83	3.7170	3.7168	2.5762	5.98	-0.01	0.750			
0.6862	43917.76	3.7140	3.7143	2.3942	5.97	-0.02	0.750			
0.6932	44365.20	3.7110	3.7108	2.1369	5.97	-0.02	0.750			
0.6989	44731.16	3.7080	3.7082	1.7822	5.97	-0.02	0.750			
0.7037	45038.54	3.7050	3.7051	1.5428	5.97	-0.02	0.750			
0.7079	45305.75	3.7020	3.7019	1.3266	5.97	-0.02	0.750			
0.7113	45524.08	3.6990	3.6989	1.1539	5.97	-0.02	0.750			
0.7144	45720.27	3.6960	3.6960	1.0267	5.97	-0.02	0.750			
0.7173	45905.98	3.6930	3.6930	0.9462	5.96	-0.03	0.750			
0.7199	46076.08	3.6900	3.6900	0.8784	5.96	-0.03	0.750			
0.7224	46235.88	3.6870	3.6869	0.8120	5.96	-0.03	0.750			
0.7248	46385.78	3.6840	3.6839	0.7582	5.97	-0.02	0.750			
0.7270	46527.40	3.6810	3.6811	0.7048	5.97	-0.02	0.750			
0.7290	46658.44	3.6780	3.6780	0.6430	5.98	-0.01	0.750			
0.7309	46776.17	3.6750	3.6749	0.5895	5.98	-0.01	0.750			
0.7325	46882.43	3.6720	3.6722	0.5306	5.99	-0.00	0.750			
0.7340	46978.49	3.6690	3.6685	0.4785	5.99	-0.00	0.750			
0.7354	47065.24	3.6660	3.6660	0.4287	5.99	0.00	0.750			
0.7366	47141.72	3.6630	3.6631	0.3811	6.00	0.01	0.750			
0.7377	47210.39	3.6600	3.6600	0.3415	6.00	0.01	0.750			
0.7386	47271.98	3.6570	3.6569	0.3015	6.00	0.01	0.750			
0.7394	47324.14	3.6540	3.6539	0.2575	6.00	0.01	0.750			
0.7402	47370.02	3.6510	3.6509	0.2200	6.00	0.01	0.750			
0.7408	47408.74	3.6480	3.6482	0.1815	6.01	0.02	0.750			
0.7413	47440.54	3.6450	3.6450	0.1430	6.01	0.02	0.750			
0.7416	47464.62	3.6420	3.6424	0.1025	6.01	0.02	0.750			
0.7419	47480.31	3.6390	3.6401	0.0610	6.01	0.02	0.750			
0.7420	47487.85	3.6360	3.6383	0.0240	6.01	0.02	0.751			
