Ah_balance (normalized)	Ah_balance (mAh)	Voltage - fit (V)	Voltage -  interpolate (V)	dQ/dV (1/V)	Temperature (°C)	Temperature - diff (°C)	Current (C)	R_DC 0ms (mOhm)	R_DC 50ms (mOhm)	R_DC 50 ms PEC (mOhm)
0.1788	11445.78	4.0750	4.0750	0.7709	7.25	1.26	0.750			
0.1812	11595.98	4.0720	4.0721	0.7910	7.25	1.26	0.750			
0.1836	11751.34	4.0690	4.0689	0.8033	7.25	1.26	0.750			
0.1860	11904.75	4.0660	4.0660	0.8099	7.25	1.26	0.750			
0.1885	12063.22	4.0630	4.0631	0.8074	7.25	1.26	0.750			
0.1909	12217.59	4.0600	4.0600	0.8116	7.25	1.26	0.750			
0.1933	12373.83	4.0570	4.0570	0.8204	7.24	1.25	0.750			
0.1958	12529.65	4.0540	4.0541	0.8259	7.24	1.25	0.750			
0.1982	12686.16	4.0510	4.0511	0.8401	7.24	1.25	0.750			
0.2008	12851.46	4.0480	4.0480	0.8437	7.24	1.25	0.750			
0.2034	13014.50	4.0450	4.0450	0.8455	7.24	1.25	0.750			
0.2059	13180.14	4.0420	4.0420	0.8472	7.23	1.24	0.750			
0.2085	13343.46	4.0390	4.0395	0.8429	7.23	1.24	0.750			
0.2110	13503.53	4.0360	4.0359	0.8390	7.23	1.24	0.750			
0.2135	13662.83	4.0330	4.0330	0.8332	7.22	1.23	0.750			
0.2160	13822.02	4.0300	4.0301	0.8370	7.22	1.23	0.750			
0.2185	13984.70	4.0270	4.0270	0.8474	7.22	1.23	0.750			
0.2210	14145.22	4.0240	4.0240	0.8474	7.21	1.22	0.750			
0.2236	14308.91	4.0210	4.0210	0.8547	7.21	1.22	0.750			
0.2262	14474.52	4.0180	4.0179	0.8559	7.20	1.21	0.750			
0.2287	14638.94	4.0150	4.0150	0.8587	7.20	1.21	0.750			
0.2313	14804.64	4.0120	4.0120	0.8595	7.20	1.21	0.750			
0.2339	14968.72	4.0090	4.0090	0.8640	7.19	1.20	0.750			
0.2365	15134.91	4.0060	4.0059	0.8657	7.19	1.20	0.750			
0.2391	15299.69	4.0030	4.0031	0.8679	7.18	1.19	0.750			
0.2417	15467.43	4.0000	4.0000	0.8718	7.18	1.19	0.750			
0.2443	15637.56	3.9970	3.9970	0.8802	7.17	1.18	0.750			
0.2470	15806.30	3.9940	3.9938	0.8791	7.17	1.18	0.750			
0.2496	15975.83	3.9910	3.9910	0.8831	7.17	1.18	0.750			
0.2523	16145.10	3.9880	3.9881	0.8813	7.16	1.17	0.750			
0.2549	16315.47	3.9850	3.9848	0.8821	7.16	1.17	0.750			
0.2576	16483.95	3.9820	3.9821	0.8802	7.15	1.16	0.750			
0.2602	16650.99	3.9790	3.9791	0.8835	7.15	1.16	0.750			
0.2628	16820.79	3.9760	3.9760	0.8806	7.15	1.16	0.750			
0.2655	16989.67	3.9730	3.9730	0.8898	7.14	1.15	0.750			
0.2681	17160.74	3.9700	3.9701	0.8947	7.14	1.15	0.750			
0.2709	17334.51	3.9670	3.9670	0.9034	7.13	1.14	0.750			
0.2736	17508.17	3.9640	3.9640	0.9131	7.13	1.14	0.750			
0.2763	17684.17	3.9610	3.9611	0.9142	7.13	1.14	0.750			
0.2791	17859.96	3.9580	3.9580	0.9214	7.12	1.13	0.750			
0.2819	18039.04	3.9550	3.9550	0.9316	7.12	1.13	0.750			
0.2846	18217.19	3.9520	3.9518	0.9308	7.12	1.13	0.750			
0.2875	18398.58	3.9490	3.9490	0.9337	7.11	1.12	0.750			
0.2903	18577.22	3.9460	3.9460	0.9360	7.11	1.12	0.750			
0.2931	18755.50	3.9430	3.9431	0.9416	7.10	1.11	0.750			
0.2959	18936.37	3.9400	3.9400	0.9463	7.09	1.10	0.750			
0.2987	19119.47	3.9370	3.9370	0.9687	7.09	1.10	0.750			
0.3016	19302.80	3.9340	3.9340	0.9888	7.08	1.09	0.750			
0.3047	19502.60	3.9310	3.9308	0.9890	7.08	1.09	0.750			
0.3078	19697.27	3.9280	3.9284	0.9933	7.07	1.08	0.750			
0.3107	19887.49	3.9250	3.9246	0.9897	7.07	1.08	0.750			
0.3137	20074.35	3.9220	3.9228	0.9907	7.06	1.07	0.750			
0.3165	20254.76	3.9190	3.9189	0.9990	7.05	1.06	0.750			
0.3194	20442.08	3.9160	3.9161	1.0224	7.04	1.05	0.750			
0.3225	20639.05	3.9130	3.9129	1.0445	7.03	1.04	0.750			
0.3260	20865.26	3.9100	3.9098	1.0695	7.02	1.03	0.750			
0.3293	21074.66	3.9070	3.9069	1.0820	7.01	1.02	0.750			
0.3325	21279.63	3.9040	3.9044	1.0928	7.01	1.02	0.750			
0.3358	21488.97	3.9010	3.9014	1.0855	7.00	1.01	0.750			
0.3389	21690.51	3.8980	3.8974	1.0863	6.99	1.00	0.750			
0.3422	21902.24	3.8950	3.8951	1.1046	6.99	1.00	0.750			
0.3455	22113.07	3.8920	3.8922	1.1205	6.98	0.99	0.750			
0.3490	22336.27	3.8890	3.8891	1.1396	6.98	0.99	0.750			
0.3524	22554.56	3.8860	3.8860	1.1358	6.97	0.98	0.750			
0.3558	22773.63	3.8830	3.8830	1.1469	6.96	0.97	0.750			
0.3593	22996.54	3.8800	3.8800	1.1602	6.95	0.96	0.750			
0.3628	23217.88	3.8770	3.8770	1.1696	6.94	0.95	0.750			
0.3663	23443.40	3.8740	3.8740	1.1866	6.93	0.94	0.750			
0.3699	23672.54	3.8710	3.8710	1.2010	6.92	0.93	0.750			
0.3735	23905.74	3.8680	3.8680	1.2161	6.91	0.92	0.750			
0.3772	24139.18	3.8650	3.8651	1.2374	6.89	0.90	0.750			
0.3809	24377.70	3.8620	3.8620	1.2579	6.88	0.89	0.750			
0.3847	24621.72	3.8590	3.8589	1.2739	6.87	0.88	0.750			
0.3885	24866.16	3.8560	3.8561	1.2967	6.86	0.87	0.750			
0.3924	25116.66	3.8530	3.8531	1.3261	6.86	0.87	0.750			
0.3965	25374.92	3.8500	3.8499	1.3527	6.85	0.86	0.750			
0.4005	25634.73	3.8470	3.8470	1.3794	6.84	0.85	0.750			
0.4047	25902.04	3.8440	3.8441	1.4103	6.83	0.84	0.750			
0.4091	26179.65	3.8410	3.8409	1.4334	6.81	0.82	0.750			
0.4134	26455.93	3.8380	3.8380	1.4600	6.80	0.81	0.750	0.467	1.040	
0.4178	26738.26	3.8350	3.8351	1.4886	6.78	0.79	0.750			
0.4223	27025.52	3.8320	3.8319	1.5187	6.77	0.78	0.750			
0.4270	27325.75	3.8290	3.8289	1.4797	6.75	0.76	0.750			
0.4314	27607.35	3.8260	3.8262	1.4775	6.73	0.74	0.750			
0.4357	27887.29	3.8230	3.8234	1.4884	6.71	0.72	0.750			
0.4400	28162.25	3.8200	3.8197	1.5032	6.69	0.70	0.750			
0.4445	28445.19	3.8170	3.8169	1.5612	6.68	0.69	0.750			
0.4492	28746.81	3.8140	3.8141	1.6459	6.66	0.67	0.750			
0.4544	29079.54	3.8110	3.8108	1.7224	6.65	0.66	0.750			
0.4596	29412.91	3.8080	3.8079	1.7737	6.63	0.64	0.750			
0.4650	29758.65	3.8050	3.8049	1.8022	6.61	0.62	0.750			
0.4705	30113.32	3.8020	3.8020	1.8502	6.60	0.61	0.750			
0.4761	30469.49	3.7990	3.7991	1.8937	6.57	0.58	0.750			
0.4819	30840.11	3.7960	3.7959	1.9068	6.55	0.56	0.750			
0.4875	31202.66	3.7930	3.7928	1.9345	6.53	0.54	0.750			
0.4934	31575.29	3.7900	3.7900	1.9911	6.51	0.52	0.750			
0.4993	31956.68	3.7870	3.7870	2.0112	6.48	0.49	0.750			
0.5055	32350.25	3.7840	3.7842	2.0540	6.46	0.47	0.750			
0.5118	32755.89	3.7810	3.7808	2.1211	6.44	0.45	0.750			
0.5181	33161.02	3.7780	3.7781	2.1592	6.42	0.43	0.750			
0.5248	33585.95	3.7750	3.7750	2.2050	6.40	0.41	0.750			
0.5314	34010.33	3.7720	3.7720	2.2499	6.37	0.38	0.750			
0.5383	34449.96	3.7690	3.7689	2.2820	6.35	0.36	0.750			
0.5452	34891.85	3.7660	3.7661	2.3249	6.32	0.33	0.750			
0.5523	35347.62	3.7630	3.7629	2.3664	6.29	0.30	0.750			
0.5593	35793.50	3.7600	3.7600	2.3773	6.27	0.28	0.750			
0.5665	36255.56	3.7570	3.7570	2.4233	6.25	0.26	0.750			
0.5738	36722.10	3.7540	3.7540	2.4798	6.22	0.23	0.750			
0.5813	37202.11	3.7510	3.7511	2.4851	6.20	0.21	0.750			
0.5888	37680.11	3.7480	3.7480	2.5236	6.18	0.19	0.750			
0.5963	38160.62	3.7450	3.7450	2.5844	6.15	0.16	0.750			
0.6042	38668.35	3.7420	3.7420	2.7065	6.13	0.14	0.750			
0.6125	39196.86	3.7390	3.7390	2.8274	6.10	0.11	0.750			
0.6212	39757.32	3.7360	3.7360	2.9823	6.06	0.07	0.750			
0.6304	40347.07	3.7330	3.7330	3.1858	6.04	0.05	0.750			
0.6403	40977.66	3.7300	3.7301	3.3952	6.02	0.03	0.750			
0.6507	41644.41	3.7270	3.7271	3.4076	6.00	0.01	0.750			
0.6610	42304.09	3.7240	3.7239	3.2301	5.98	-0.01	0.750			
0.6702	42892.36	3.7210	3.7210	2.9816	5.97	-0.02	0.750			
0.6789	43449.05	3.7180	3.7180	2.6894	5.96	-0.03	0.750			
0.6863	43926.24	3.7150	3.7152	2.3288	5.95	-0.04	0.750			
0.6927	44330.59	3.7120	3.7119	1.9610	5.95	-0.04	0.750			
0.6980	44672.16	3.7090	3.7089	1.6548	5.95	-0.04	0.750			
0.7023	44947.54	3.7060	3.7060	1.4042	5.95	-0.04	0.750			
0.7059	45175.93	3.7030	3.7031	1.2119	5.95	-0.04	0.750			
0.7091	45379.98	3.7000	3.6996	1.0540	5.95	-0.04	0.750			
0.7119	45560.95	3.6970	3.6973	0.9500	5.95	-0.04	0.750			
0.7145	45728.78	3.6940	3.6940	0.8625	5.95	-0.04	0.750			
0.7170	45885.41	3.6910	3.6909	0.7955	5.95	-0.04	0.750			
0.7193	46033.03	3.6880	3.6880	0.7413	5.95	-0.04	0.750			
0.7214	46167.49	3.6850	3.6850	0.6825	5.95	-0.04	0.750			
0.7233	46292.87	3.6820	3.6819	0.6286	5.95	-0.04	0.750			
0.7251	46408.35	3.6790	3.6790	0.5751	5.96	-0.03	0.750			
0.7268	46512.64	3.6760	3.6760	0.5217	5.96	-0.03	0.750			
0.7283	46609.05	3.6730	3.6730	0.4730	5.97	-0.02	0.750			
0.7296	46693.70	3.6700	3.6700	0.4217	5.97	-0.02	0.750			
0.7308	46768.61	3.6670	3.6670	0.3736	5.98	-0.01	0.750			
0.7318	46835.32	3.6640	3.6640	0.3271	5.98	-0.01	0.750			
0.7327	46893.01	3.6610	3.6610	0.2870	5.98	-0.01	0.750			
0.7335	46944.16	3.6580	3.6579	0.2467	5.99	-0.00	0.750			
0.7342	46987.57	3.6550	3.6550	0.2078	5.99	-0.00	0.750			
0.7348	47024.19	3.6520	3.6518	0.1706	5.99	0.00	0.750			
0.7352	47053.86	3.6490	3.6493	0.1319	5.99	0.00	0.750			
0.7356	47075.79	3.6460	3.6465	0.0903	5.99	0.00	0.750			
0.7358	47089.77	3.6430	3.6437	0.0346	5.99	0.00	0.750			
