Ah_balance (normalized)	Ah_balance (mAh)	Voltage - fit (V)	Voltage -  interpolate (V)	dQ/dV (1/V)	Temperature (°C)	Temperature - diff (°C)	Current (C)	R_DC 0ms (mOhm)	R_DC 50ms (mOhm)	R_DC 50 ms PEC (mOhm)
0.0932	5961.75	4.0060	4.0056	-0.0459	5.99	0.02	-0.750			
0.0934	5975.60	4.0030	4.0023	-0.0853	5.99	0.02	-0.750			
0.0937	5994.50	4.0000	3.9997	-0.1109	5.99	0.02	-0.750			
0.0940	6018.11	3.9970	3.9971	-0.1364	5.99	0.02	-0.750			
0.0945	6046.29	3.9940	3.9943	-0.1636	5.99	0.02	-0.750			
0.0950	6080.42	3.9910	3.9909	-0.1899	5.99	0.02	-0.750			
0.0956	6119.69	3.9880	3.9880	-0.2155	5.99	0.02	-0.750			
0.0963	6163.51	3.9850	3.9849	-0.2401	5.98	0.01	-0.750			
0.0971	6212.35	3.9820	3.9822	-0.2641	5.98	0.01	-0.750			
0.0979	6265.98	3.9790	3.9790	-0.2879	5.98	0.01	-0.750			
0.0988	6323.45	3.9760	3.9761	-0.3116	5.98	0.01	-0.750			
0.0998	6385.50	3.9730	3.9730	-0.3324	5.98	0.01	-0.750			
0.1008	6450.78	3.9700	3.9699	-0.3572	5.98	0.01	-0.750			
0.1019	6522.06	3.9670	3.9671	-0.3793	5.98	0.01	-0.750			
0.1031	6596.96	3.9640	3.9639	-0.4020	5.97	0.00	-0.750			
0.1043	6677.10	3.9610	3.9609	-0.4244	5.97	0.00	-0.750			
0.1056	6760.49	3.9580	3.9581	-0.4465	5.97	-0.00	-0.750			
0.1070	6848.26	3.9550	3.9550	-0.4673	5.97	-0.00	-0.750			
0.1084	6940.54	3.9520	3.9520	-0.4883	5.96	-0.01	-0.750			
0.1099	7035.89	3.9490	3.9490	-0.5058	5.96	-0.01	-0.750			
0.1115	7135.33	3.9460	3.9461	-0.5278	5.96	-0.01	-0.750			
0.1131	7239.75	3.9430	3.9430	-0.5413	5.96	-0.01	-0.750			
0.1148	7344.82	3.9400	3.9400	-0.5584	5.95	-0.02	-0.750			
0.1165	7453.75	3.9370	3.9370	-0.5718	5.95	-0.02	-0.750			
0.1182	7564.39	3.9340	3.9340	-0.5895	5.95	-0.02	-0.750			
0.1200	7679.26	3.9310	3.9309	-0.6050	5.95	-0.02	-0.750			
0.1218	7797.60	3.9280	3.9281	-0.6181	5.95	-0.02	-0.750			
0.1237	7919.19	3.9250	3.9249	-0.6286	5.95	-0.02	-0.750			
0.1257	8042.07	3.9220	3.9221	-0.6409	5.95	-0.02	-0.750			
0.1276	8165.04	3.9190	3.9190	-0.6457	5.95	-0.02	-0.750			
0.1295	8290.20	3.9160	3.9159	-0.6534	5.95	-0.02	-0.750			
0.1315	8415.58	3.9130	3.9129	-0.6564	5.95	-0.02	-0.750			
0.1335	8542.61	3.9100	3.9100	-0.6648	5.95	-0.02	-0.750			
0.1355	8672.09	3.9070	3.9070	-0.6743	5.95	-0.02	-0.750			
0.1375	8802.47	3.9040	3.9040	-0.6776	5.96	-0.01	-0.750			
0.1396	8932.66	3.9010	3.9009	-0.6826	5.96	-0.01	-0.750			
0.1416	9064.52	3.8980	3.8980	-0.6880	5.96	-0.01	-0.750			
0.1437	9196.42	3.8950	3.8949	-0.6943	5.96	-0.01	-0.750			
0.1458	9330.64	3.8920	3.8920	-0.6981	5.97	-0.00	-0.750			
0.1479	9464.29	3.8890	3.8889	-0.7068	5.97	-0.00	-0.750			
0.1500	9601.22	3.8860	3.8861	-0.7134	5.97	0.00	-0.750			
0.1522	9741.60	3.8830	3.8829	-0.7187	5.98	0.01	-0.750			
0.1544	9880.43	3.8800	3.8800	-0.7183	5.98	0.01	-0.750			
0.1565	10019.06	3.8770	3.8770	-0.7174	5.98	0.01	-0.750			
0.1587	10155.51	3.8740	3.8740	-0.7163	5.99	0.02	-0.750			
0.1608	10292.90	3.8710	3.8710	-0.7208	5.99	0.02	-0.750			
0.1630	10429.40	3.8680	3.8679	-0.7181	6.00	0.03	-0.750			
0.1651	10569.35	3.8650	3.8649	-0.7249	6.00	0.03	-0.750			
0.1673	10708.88	3.8620	3.8622	-0.7291	6.01	0.04	-0.750			
0.1696	10851.78	3.8590	3.8589	-0.7244	6.01	0.04	-0.750			
0.1717	10989.76	3.8560	3.8561	-0.7224	6.02	0.05	-0.750			
0.1738	11126.02	3.8530	3.8531	-0.7265	6.02	0.05	-0.750			
0.1760	11265.90	3.8500	3.8498	-0.7302	6.02	0.05	-0.750			
0.1782	11407.69	3.8470	3.8468	-0.7360	6.03	0.06	-0.750			
0.1805	11549.31	3.8440	3.8443	-0.7354	6.03	0.06	-0.750			
0.1827	11693.03	3.8410	3.8410	-0.7351	6.03	0.06	-0.750			
0.1849	11834.90	3.8380	3.8380	-0.7390	6.04	0.07	-0.750			
0.1871	11973.32	3.8350	3.8350	-0.7320	6.04	0.07	-0.750			
0.1893	12114.76	3.8320	3.8319	-0.7373	6.04	0.07	-0.750			
0.1915	12255.62	3.8290	3.8288	-0.7376	6.05	0.08	-0.750			
0.1937	12398.31	3.8260	3.8260	-0.7357	6.05	0.08	-0.750			
0.1959	12540.04	3.8230	3.8230	-0.7367	6.06	0.09	-0.750			
0.1982	12682.38	3.8200	3.8200	-0.7431	6.07	0.10	-0.750			
0.2004	12823.26	3.8170	3.8169	-0.7379	6.07	0.10	-0.750			
0.2026	12967.17	3.8140	3.8139	-0.7432	6.08	0.11	-0.750			
0.2048	13109.73	3.8110	3.8113	-0.7406	6.09	0.12	-0.750			
0.2071	13252.36	3.8080	3.8080	-0.7397	6.09	0.12	-0.750			
0.2093	13396.36	3.8050	3.8050	-0.7369	6.10	0.13	-0.750			
0.2115	13535.37	3.8020	3.8019	-0.7371	6.11	0.14	-0.750			
0.2137	13675.74	3.7990	3.7991	-0.7410	6.11	0.14	-0.750			
0.2159	13817.36	3.7960	3.7959	-0.7431	6.12	0.15	-0.750			
0.2181	13961.33	3.7930	3.7931	-0.7421	6.12	0.15	-0.750			
0.2204	14103.72	3.7900	3.7900	-0.7467	6.13	0.16	-0.750			
0.2226	14247.23	3.7870	3.7871	-0.7449	6.13	0.16	-0.750			
0.2249	14391.03	3.7840	3.7838	-0.7465	6.14	0.17	-0.750			
0.2271	14533.22	3.7810	3.7810	-0.7500	6.14	0.17	-0.750			
0.2293	14676.84	3.7780	3.7779	-0.7550	6.15	0.18	-0.750			
0.2316	14822.79	3.7750	3.7748	-0.7579	6.15	0.18	-0.750			
0.2339	14969.28	3.7720	3.7720	-0.7647	6.16	0.19	-0.750			
0.2362	15115.00	3.7690	3.7690	-0.7642	6.17	0.20	-0.750			
0.2385	15263.89	3.7660	3.7661	-0.7646	6.18	0.21	-0.750			
0.2408	15412.82	3.7630	3.7628	-0.7642	6.18	0.21	-0.750			
0.2431	15557.28	3.7600	3.7601	-0.7691	6.19	0.22	-0.750			
0.2454	15703.83	3.7570	3.7571	-0.7709	6.19	0.22	-0.750			
0.2477	15853.53	3.7540	3.7538	-0.7798	6.20	0.23	-0.750			
0.2501	16004.99	3.7510	3.7510	-0.7845	6.20	0.23	-0.750			
0.2524	16156.27	3.7480	3.7480	-0.7867	6.21	0.24	-0.750			
0.2548	16307.92	3.7450	3.7453	-0.7868	6.21	0.24	-0.750			
0.2572	16459.50	3.7420	3.7419	-0.7875	6.22	0.25	-0.750			
0.2595	16608.46	3.7390	3.7389	-0.7900	6.22	0.25	-0.750			
0.2619	16760.54	3.7360	3.7360	-0.7913	6.23	0.26	-0.750			
0.2642	16911.97	3.7330	3.7329	-0.7973	6.24	0.27	-0.750			
0.2667	17068.27	3.7300	3.7301	-0.8048	6.25	0.28	-0.750			
0.2691	17223.35	3.7270	3.7269	-0.8116	6.25	0.28	-0.750			
0.2715	17379.15	3.7240	3.7240	-0.8227	6.26	0.29	-0.750			
0.2740	17537.86	3.7210	3.7210	-0.8300	6.26	0.29	-0.750			
0.2765	17695.55	3.7180	3.7180	-0.8382	6.26	0.29	-0.750			
0.2791	17861.56	3.7150	3.7149	-0.8465	6.27	0.30	-0.750			
0.2816	18023.71	3.7120	3.7120	-0.8478	6.27	0.30	-0.750			
0.2842	18187.58	3.7090	3.7090	-0.8602	6.28	0.31	-0.750			
0.2868	18352.28	3.7060	3.7060	-0.8634	6.28	0.31	-0.750			
0.2893	18518.18	3.7030	3.7029	-0.8651	6.28	0.31	-0.750			
0.2920	18686.87	3.7000	3.6999	-0.8729	6.29	0.32	-0.750			
0.2946	18854.07	3.6970	3.6970	-0.8774	6.30	0.33	-0.750			
0.2973	19024.06	3.6940	3.6939	-0.8829	6.30	0.33	-0.750			
0.2999	19192.49	3.6910	3.6910	-0.8853	6.31	0.34	-0.750			
0.3025	19360.45	3.6880	3.6879	-0.8904	6.32	0.35	-0.750			
0.3052	19535.90	3.6850	3.6852	-0.9018	6.33	0.36	-0.750			
0.3079	19708.60	3.6820	3.6820	-0.9169	6.33	0.36	-0.750			
0.3107	19886.16	3.6790	3.6789	-0.9259	6.34	0.37	-0.750			
0.3135	20064.59	3.6760	3.6761	-0.9374	6.34	0.37	-0.750			
0.3163	20245.99	3.6730	3.6729	-0.9487	6.35	0.38	-0.750			
0.3192	20429.34	3.6700	3.6699	-0.9573	6.35	0.38	-0.750			
0.3221	20615.59	3.6670	3.6670	-0.9656	6.36	0.39	-0.750			
0.3250	20802.26	3.6640	3.6640	-0.9711	6.36	0.39	-0.750			
0.3279	20988.50	3.6610	3.6610	-0.9701	6.37	0.40	-0.750			
0.3309	21176.16	3.6580	3.6581	-0.9821	6.37	0.40	-0.750			
0.3338	21363.17	3.6550	3.6550	-0.9940	6.38	0.41	-0.750			
0.3368	21555.98	3.6520	3.6518	-0.9989	6.38	0.41	-0.750			
0.3398	21747.63	3.6490	3.6490	-1.0070	6.39	0.42	-0.750			
0.3429	21946.27	3.6460	3.6463	-1.0168	6.39	0.42	-0.750			
0.3460	22141.67	3.6430	3.6428	-1.0240	6.39	0.42	-0.750			
0.3490	22337.61	3.6400	3.6400	-1.0284	6.39	0.42	-0.750			
0.3520	22530.50	3.6370	3.6370	-1.0314	6.39	0.42	-0.750			
0.3551	22729.09	3.6340	3.6341	-1.0587	6.39	0.42	-0.750			
0.3584	22935.94	3.6310	3.6309	-1.0714	6.40	0.43	-0.750			
0.3616	23142.88	3.6280	3.6280	-1.0770	6.40	0.43	-0.750			
0.3649	23352.89	3.6250	3.6250	-1.0854	6.41	0.44	-0.750			
0.3682	23561.63	3.6220	3.6222	-1.0971	6.41	0.44	-0.750			
0.3715	23773.96	3.6190	3.6188	-1.1021	6.42	0.45	-0.750			
0.3747	23982.31	3.6160	3.6160	-1.1050	6.42	0.45	-0.750			
0.3780	24194.72	3.6130	3.6129	-1.1149	6.43	0.46	-0.750			
0.3815	24412.96	3.6100	3.6101	-1.1371	6.43	0.46	-0.750			
0.3847	24623.52	3.6070	3.6070	-1.1871	6.43	0.46	-0.750			
0.3883	24851.47	3.6040	3.6040	-1.2237	6.43	0.46	-0.750			
0.3921	25094.40	3.6010	3.6009	-1.2532	6.43	0.46	-0.750			
0.3961	25348.26	3.5980	3.5979	-1.2737	6.44	0.47	-0.750			
0.4001	25605.60	3.5950	3.5952	-1.2834	6.44	0.47	-0.750			
0.4039	25852.18	3.5920	3.5922	-1.2783	6.45	0.48	-0.750			
0.4077	26094.78	3.5890	3.5893	-1.2544	6.46	0.49	-0.750	0.456	1.049	
0.4113	26322.95	3.5860	3.5859	-1.2189	6.47	0.50	-0.750			
0.4149	26555.03	3.5830	3.5830	-1.2297	6.48	0.51	-0.750			
0.4186	26789.74	3.5800	3.5802	-1.2445	6.49	0.52	-0.750			
0.4224	27035.02	3.5770	3.5769	-1.2635	6.50	0.53	-0.750			
0.4262	27279.07	3.5740	3.5740	-1.2771	6.50	0.53	-0.750			
0.4301	27523.56	3.5710	3.5711	-1.2913	6.51	0.54	-0.750			
0.4340	27776.65	3.5680	3.5680	-1.3156	6.52	0.55	-0.750			
0.4380	28032.14	3.5650	3.5649	-1.3200	6.52	0.55	-0.750			
0.4420	28286.12	3.5620	3.5621	-1.3285	6.53	0.56	-0.750			
0.4459	28539.46	3.5590	3.5590	-1.3496	6.54	0.57	-0.750			
0.4500	28803.18	3.5560	3.5559	-1.3559	6.54	0.57	-0.750			
0.4541	29064.52	3.5530	3.5531	-1.3605	6.55	0.58	-0.750			
0.4582	29322.33	3.5500	3.5500	-1.3864	6.55	0.58	-0.750			
0.4624	29592.19	3.5470	3.5469	-1.4063	6.56	0.59	-0.750			
0.4667	29865.81	3.5440	3.5440	-1.4261	6.57	0.60	-0.750			
0.4709	30139.53	3.5410	3.5409	-1.4361	6.58	0.61	-0.750			
0.4753	30418.49	3.5380	3.5381	-1.4486	6.59	0.62	-0.750			
0.4798	30704.46	3.5350	3.5350	-1.4656	6.61	0.64	-0.750			
0.4842	30986.12	3.5320	3.5319	-1.4709	6.62	0.65	-0.750			
0.4885	31262.37	3.5290	3.5290	-1.4805	6.62	0.65	-0.750			
0.4930	31554.05	3.5260	3.5260	-1.4972	6.63	0.66	-0.750			
0.4976	31844.40	3.5230	3.5231	-1.5026	6.65	0.68	-0.750			
0.5021	32134.38	3.5200	3.5200	-1.5213	6.66	0.69	-0.750			
0.5067	32428.01	3.5170	3.5170	-1.5209	6.68	0.71	-0.750			
0.5113	32723.14	3.5140	3.5139	-1.5251	6.69	0.72	-0.750			
0.5158	33013.18	3.5110	3.5111	-1.5218	6.70	0.73	-0.750			
0.5204	33308.21	3.5080	3.5079	-1.5128	6.72	0.75	-0.750			
0.5250	33599.17	3.5050	3.5050	-1.5383	6.73	0.76	-0.750			
0.5296	33894.52	3.5020	3.5020	-1.5407	6.75	0.78	-0.750			
0.5342	34190.87	3.4990	3.4987	-1.5488	6.76	0.79	-0.750			
0.5389	34490.48	3.4960	3.4963	-1.5587	6.76	0.79	-0.750			
0.5436	34790.56	3.4930	3.4930	-1.5581	6.77	0.80	-0.750			
0.5483	35089.83	3.4900	3.4901	-1.5557	6.79	0.82	-0.750			
0.5529	35385.98	3.4870	3.4870	-1.5348	6.81	0.84	-0.750			
0.5576	35686.67	3.4840	3.4838	-1.5416	6.83	0.86	-0.750			
0.5622	35982.83	3.4810	3.4811	-1.5361	6.85	0.88	-0.750			
0.5668	36276.50	3.4780	3.4779	-1.5288	6.87	0.90	-0.750			
0.5714	36567.34	3.4750	3.4750	-1.5303	6.88	0.91	-0.750			
0.5760	36862.55	3.4720	3.4717	-1.5233	6.90	0.93	-0.750			
0.5805	37153.41	3.4690	3.4691	-1.5154	6.91	0.94	-0.750			
0.5851	37443.75	3.4660	3.4662	-1.5077	6.93	0.96	-0.750			
0.5896	37736.58	3.4630	3.4629	-1.5064	6.94	0.97	-0.750			
0.5941	38021.38	3.4600	3.4599	-1.4801	6.95	0.98	-0.750			
0.5985	38304.61	3.4570	3.4571	-1.4875	6.97	1.00	-0.750			
0.6030	38590.83	3.4540	3.4540	-1.4739	6.98	1.01	-0.750			
0.6074	38873.51	3.4510	3.4509	-1.4593	7.00	1.03	-0.750			
0.6118	39155.96	3.4480	3.4480	-1.4410	7.02	1.05	-0.750			
0.6161	39429.42	3.4450	3.4448	-1.4234	7.04	1.07	-0.750			
0.6203	39700.84	3.4420	3.4419	-1.4001	7.06	1.09	-0.750			
0.6245	39969.81	3.4390	3.4390	-1.3726	7.08	1.11	-0.750			
0.6285	40224.44	3.4360	3.4360	-1.3486	7.10	1.13	-0.750			
0.6325	40482.04	3.4330	3.4330	-1.3294	7.12	1.15	-0.750			
0.6365	40738.16	3.4300	3.4299	-1.3146	7.14	1.17	-0.750			
0.6405	40990.09	3.4270	3.4269	-1.2885	7.16	1.19	-0.750			
0.6443	41233.58	3.4240	3.4241	-1.2621	7.18	1.21	-0.750			
0.6481	41478.57	3.4210	3.4211	-1.2411	7.21	1.24	-0.750			
0.6518	41714.15	3.4180	3.4179	-1.2141	7.23	1.26	-0.750			
0.6553	41938.01	3.4150	3.4152	-1.1825	7.25	1.28	-0.750			
0.6588	42166.27	3.4120	3.4119	-1.1614	7.27	1.30	-0.750			
0.6623	42387.62	3.4090	3.4089	-1.1381	7.28	1.31	-0.750			
0.6657	42604.74	3.4060	3.4059	-1.1108	7.30	1.33	-0.750			
0.6690	42814.69	3.4030	3.4030	-1.0837	7.32	1.35	-0.750			
0.6722	43021.74	3.4000	3.4000	-1.0537	7.33	1.36	-0.750			
0.6753	43219.06	3.3970	3.3969	-1.0195	7.35	1.38	-0.750			
0.6783	43409.62	3.3940	3.3941	-0.9911	7.36	1.39	-0.750			
0.6812	43599.64	3.3910	3.3910	-0.9733	7.38	1.41	-0.750			
0.6841	43783.53	3.3880	3.3879	-0.9471	7.40	1.43	-0.750			
0.6869	43963.35	3.3850	3.3849	-0.9241	7.41	1.44	-0.750			
0.6897	44138.36	3.3820	3.3821	-0.8965	7.43	1.46	-0.750			
0.6923	44309.41	3.3790	3.3790	-0.8740	7.45	1.48	-0.750			
0.6949	44473.67	3.3760	3.3760	-0.8518	7.47	1.50	-0.750			
0.6974	44634.21	3.3730	3.3729	-0.8304	7.48	1.51	-0.750			
0.6999	44790.64	3.3700	3.3700	-0.8100	7.50	1.53	-0.750			
0.7023	44945.46	3.3670	3.3671	-0.7878	7.51	1.54	-0.750			
0.7046	45095.78	3.3640	3.3641	-0.7667	7.53	1.56	-0.750			
0.7069	45241.15	3.3610	3.3610	-0.7460	7.54	1.57	-0.750			
0.7091	45380.79	3.3580	3.3580	-0.7227	7.56	1.59	-0.750			
0.7112	45516.60	3.3550	3.3550	-0.7029	7.58	1.61	-0.750			
0.7133	45649.30	3.3520	3.3520	-0.6842	7.60	1.63	-0.750			
0.7153	45779.44	3.3490	3.3490	-0.6690	7.61	1.64	-0.750			
0.7173	45907.02	3.3460	3.3461	-0.6523	7.63	1.66	-0.750			
0.7192	46030.60	3.3430	3.3429	-0.6334	7.64	1.67	-0.750			
0.7211	46150.50	3.3400	3.3400	-0.6164	7.66	1.69	-0.750			
