Ah_balance (normalized)	Ah_balance (mAh)	Voltage - fit (V)	Voltage -  interpolate (V)	dQ/dV (1/V)	Temperature (°C)	Temperature - diff (°C)	Current (C)	R_DC 0ms (mOhm)	R_DC 50ms (mOhm)	R_DC 50 ms PEC (mOhm)
0.1802	11534.09	4.0810	4.0811	0.7065	7.26	1.27	0.750			
0.1824	11675.36	4.0780	4.0778	0.7362	7.26	1.27	0.750			
0.1846	11815.51	4.0750	4.0751	0.7321	7.25	1.26	0.750			
0.1868	11956.95	4.0720	4.0721	0.7273	7.25	1.26	0.750			
0.1890	12096.20	4.0690	4.0691	0.7322	7.24	1.25	0.750			
0.1912	12238.86	4.0660	4.0658	0.7410	7.24	1.25	0.750			
0.1934	12380.48	4.0630	4.0629	0.7445	7.23	1.24	0.750			
0.1957	12524.51	4.0600	4.0600	0.7436	7.23	1.24	0.750			
0.1980	12672.40	4.0570	4.0571	0.7475	7.22	1.23	0.750			
0.2002	12812.30	4.0540	4.0536	0.7479	7.22	1.23	0.750			
0.2024	12952.47	4.0510	4.0508	0.7554	7.22	1.23	0.750			
0.2046	13092.39	4.0480	4.0481	0.7620	7.21	1.22	0.750			
0.2068	13237.49	4.0450	4.0449	0.7695	7.21	1.22	0.750			
0.2093	13397.59	4.0420	4.0421	0.7948	7.20	1.21	0.750			
0.2118	13554.06	4.0390	4.0389	0.7800	7.19	1.20	0.750			
0.2141	13703.94	4.0360	4.0362	0.7934	7.19	1.20	0.750			
0.2165	13853.68	4.0330	4.0329	0.7953	7.18	1.19	0.750			
0.2188	14003.72	4.0300	4.0299	0.7930	7.17	1.18	0.750			
0.2212	14157.23	4.0270	4.0271	0.8002	7.16	1.17	0.750			
0.2237	14313.61	4.0240	4.0242	0.8010	7.16	1.17	0.750			
0.2260	14466.26	4.0210	4.0210	0.8131	7.15	1.16	0.750			
0.2285	14624.34	4.0180	4.0180	0.8260	7.14	1.15	0.750			
0.2309	14778.05	4.0150	4.0150	0.8220	7.13	1.14	0.750			
0.2334	14939.06	4.0120	4.0121	0.8280	7.13	1.14	0.750			
0.2360	15103.56	4.0090	4.0091	0.8263	7.12	1.13	0.750			
0.2385	15260.85	4.0060	4.0061	0.8326	7.12	1.13	0.750			
0.2409	15420.25	4.0030	4.0030	0.8420	7.12	1.13	0.750			
0.2434	15577.71	4.0000	4.0000	0.8371	7.11	1.12	0.750			
0.2460	15741.91	3.9970	3.9971	0.8379	7.10	1.11	0.750			
0.2485	15906.63	3.9940	3.9941	0.8330	7.10	1.11	0.750			
0.2510	16065.53	3.9910	3.9912	0.8439	7.09	1.10	0.750			
0.2536	16227.59	3.9880	3.9879	0.8499	7.08	1.09	0.750			
0.2560	16386.46	3.9850	3.9848	0.8439	7.07	1.08	0.750			
0.2586	16553.01	3.9820	3.9821	0.8441	7.07	1.08	0.750			
0.2612	16716.22	3.9790	3.9791	0.8580	7.06	1.07	0.750			
0.2638	16883.08	3.9760	3.9760	0.8652	7.06	1.07	0.750			
0.2664	17050.26	3.9730	3.9731	0.8690	7.05	1.06	0.750			
0.2689	17212.46	3.9700	3.9699	0.8653	7.05	1.06	0.750			
0.2715	17378.04	3.9670	3.9672	0.8814	7.04	1.05	0.750			
0.2742	17549.26	3.9640	3.9640	0.8886	7.03	1.04	0.750			
0.2769	17722.09	3.9610	3.9609	0.8957	7.03	1.04	0.750			
0.2797	17899.68	3.9580	3.9579	0.9010	7.02	1.03	0.750			
0.2823	18069.41	3.9550	3.9551	0.9054	7.01	1.02	0.750			
0.2851	18244.58	3.9520	3.9521	0.9091	7.00	1.01	0.750			
0.2878	18418.94	3.9490	3.9489	0.9126	6.99	1.00	0.750			
0.2905	18595.08	3.9460	3.9460	0.9074	6.98	0.99	0.750			
0.2933	18769.87	3.9430	3.9430	0.9197	6.97	0.98	0.750			
0.2960	18945.78	3.9400	3.9401	0.9213	6.97	0.98	0.750			
0.2988	19123.62	3.9370	3.9371	0.9196	6.96	0.97	0.750			
0.3015	19296.31	3.9340	3.9344	0.9248	6.95	0.96	0.750			
0.3043	19474.05	3.9310	3.9311	0.9322	6.95	0.96	0.750			
0.3071	19653.23	3.9280	3.9275	0.9427	6.94	0.95	0.750			
0.3099	19836.56	3.9250	3.9251	0.9497	6.93	0.94	0.750			
0.3128	20018.42	3.9220	3.9221	0.9550	6.93	0.94	0.750			
0.3157	20206.55	3.9190	3.9190	0.9718	6.92	0.93	0.750			
0.3186	20391.24	3.9160	3.9159	0.9711	6.91	0.92	0.750			
0.3216	20579.87	3.9130	3.9130	0.9788	6.90	0.91	0.750			
0.3245	20768.99	3.9100	3.9101	0.9803	6.89	0.90	0.750			
0.3274	20954.88	3.9070	3.9071	0.9947	6.88	0.89	0.750			
0.3304	21146.83	3.9040	3.9041	1.0120	6.87	0.88	0.750			
0.3335	21342.58	3.9010	3.9011	1.0165	6.86	0.87	0.750			
0.3365	21538.12	3.8980	3.8982	1.0338	6.85	0.86	0.750			
0.3397	21739.72	3.8950	3.8950	1.0558	6.84	0.85	0.750			
0.3429	21947.13	3.8920	3.8922	1.0675	6.83	0.84	0.750			
0.3462	22155.05	3.8890	3.8891	1.0470	6.82	0.83	0.750			
0.3493	22354.36	3.8860	3.8860	1.0663	6.81	0.82	0.750			
0.3525	22558.92	3.8830	3.8831	1.0789	6.80	0.81	0.750			
0.3557	22767.97	3.8800	3.8800	1.1024	6.79	0.80	0.750			
0.3590	22976.31	3.8770	3.8772	1.1020	6.78	0.79	0.750			
0.3623	23188.34	3.8740	3.8741	1.1212	6.77	0.78	0.750			
0.3658	23408.93	3.8710	3.8711	1.1442	6.76	0.77	0.750			
0.3693	23633.67	3.8680	3.8676	1.1648	6.75	0.76	0.750			
0.3727	23851.40	3.8650	3.8650	1.1560	6.74	0.75	0.750			
0.3762	24074.26	3.8620	3.8622	1.1790	6.73	0.74	0.750			
0.3797	24303.95	3.8590	3.8590	1.1867	6.72	0.73	0.750			
0.3833	24529.65	3.8560	3.8563	1.2031	6.71	0.72	0.750			
0.3869	24763.87	3.8530	3.8531	1.2398	6.69	0.70	0.750			
0.3907	25002.82	3.8500	3.8502	1.2669	6.68	0.69	0.750			
0.3945	25246.44	3.8470	3.8467	1.3127	6.67	0.68	0.750			
0.3985	25504.23	3.8440	3.8443	1.3194	6.66	0.67	0.750			
0.4025	25762.97	3.8410	3.8412	1.3624	6.64	0.65	0.750	0.302	0.828	
0.4068	26036.09	3.8380	3.8380	1.3739	6.63	0.64	0.750			
0.4108	26290.44	3.8350	3.8352	1.3830	6.62	0.63	0.750			
0.4151	26563.91	3.8320	3.8324	1.4172	6.60	0.61	0.750			
0.4192	26830.65	3.8290	3.8284	1.4191	6.59	0.60	0.750			
0.4235	27104.43	3.8260	3.8262	1.4564	6.58	0.59	0.750			
0.4281	27396.18	3.8230	3.8231	1.4672	6.56	0.57	0.750			
0.4326	27685.53	3.8200	3.8199	1.5025	6.55	0.56	0.750			
0.4371	27972.35	3.8170	3.8171	1.5057	6.53	0.54	0.750			
0.4415	28254.72	3.8140	3.8143	1.5318	6.51	0.52	0.750			
0.4463	28560.01	3.8110	3.8110	1.5123	6.49	0.50	0.750			
0.4508	28848.22	3.8080	3.8084	1.5190	6.47	0.48	0.750			
0.4553	29140.65	3.8050	3.8054	1.5750	6.46	0.47	0.750			
0.4602	29451.65	3.8020	3.8017	1.6073	6.44	0.45	0.750			
0.4650	29762.86	3.7990	3.7988	1.6939	6.42	0.43	0.750			
0.4705	30110.98	3.7960	3.7960	1.7660	6.41	0.42	0.750			
0.4755	30434.90	3.7930	3.7932	1.6978	6.39	0.40	0.750			
0.4805	30752.64	3.7900	3.7901	1.7285	6.37	0.38	0.750			
0.4860	31104.48	3.7870	3.7869	1.7635	6.36	0.37	0.750			
0.4912	31435.85	3.7840	3.7840	1.7633	6.34	0.35	0.750			
0.4968	31796.68	3.7810	3.7808	1.8498	6.32	0.33	0.750			
0.5022	32139.15	3.7780	3.7777	1.8131	6.30	0.31	0.750			
0.5076	32487.11	3.7750	3.7752	1.8338	6.29	0.30	0.750			
0.5130	32834.29	3.7720	3.7723	1.7956	6.27	0.28	0.750			
0.5187	33194.37	3.7690	3.7688	1.8148	6.25	0.26	0.750			
0.5243	33554.79	3.7660	3.7658	1.8664	6.23	0.24	0.750			
0.5297	33903.85	3.7630	3.7636	1.8566	6.22	0.23	0.750			
0.5355	34269.88	3.7600	3.7601	1.9476	6.20	0.21	0.750			
0.5411	34631.39	3.7570	3.7575	1.8995	6.18	0.19	0.750			
0.5472	35020.02	3.7540	3.7540	1.9827	6.16	0.17	0.750			
0.5529	35383.95	3.7510	3.7509	1.9510	6.14	0.15	0.750			
0.5589	35768.18	3.7480	3.7474	1.9648	6.12	0.13	0.750			
0.5648	36145.79	3.7450	3.7448	2.0393	6.10	0.11	0.750			
0.5710	36544.93	3.7420	3.7422	2.1191	6.08	0.09	0.750			
0.5777	36971.67	3.7390	3.7390	2.2167	6.06	0.07	0.750			
0.5846	37416.64	3.7360	3.7359	2.2376	6.04	0.05	0.750			
0.5910	37825.68	3.7330	3.7331	2.2813	6.03	0.04	0.750			
0.5979	38268.05	3.7300	3.7299	2.2331	6.01	0.02	0.750			
0.6045	38686.38	3.7270	3.7276	2.3227	6.00	0.01	0.750			
0.6117	39148.00	3.7240	3.7238	2.3635	5.99	-0.00	0.750			
0.6186	39592.25	3.7210	3.7209	2.4160	5.97	-0.02	0.750			
0.6255	40031.17	3.7180	3.7182	2.1581	5.96	-0.03	0.750			
0.6316	40419.27	3.7150	3.7149	1.9988	5.95	-0.04	0.750			
0.6374	40793.65	3.7120	3.7124	1.8873	5.94	-0.05	0.750			
0.6429	41145.87	3.7090	3.7092	1.7250	5.93	-0.06	0.750			
0.6477	41454.22	3.7060	3.7063	1.5673	5.93	-0.06	0.750			
0.6521	41737.56	3.7030	3.7031	1.4064	5.93	-0.06	0.750			
0.6560	41986.70	3.7000	3.6997	1.2663	5.93	-0.06	0.750			
0.6594	42202.39	3.6970	3.6973	1.1284	5.93	-0.06	0.750			
0.6627	42409.90	3.6940	3.6940	1.0317	5.93	-0.06	0.750			
0.6655	42590.98	3.6910	3.6910	0.9782	5.93	-0.06	0.750			
0.6682	42766.55	3.6880	3.6882	0.9331	5.93	-0.06	0.750			
0.6709	42938.95	3.6850	3.6853	0.8953	5.93	-0.06	0.750			
0.6736	43110.21	3.6820	3.6821	0.8585	5.93	-0.06	0.750			
0.6762	43274.22	3.6790	3.6791	0.8360	5.93	-0.06	0.750			
0.6787	43434.06	3.6760	3.6762	0.8187	5.93	-0.06	0.750			
0.6811	43588.05	3.6730	3.6728	0.7727	5.93	-0.06	0.750			
0.6833	43731.80	3.6700	3.6701	0.7489	5.93	-0.06	0.750			
0.6855	43872.74	3.6670	3.6672	0.7227	5.94	-0.05	0.750			
0.6877	44011.26	3.6640	3.6642	0.7017	5.94	-0.05	0.750			
0.6898	44147.12	3.6610	3.6613	0.6637	5.94	-0.05	0.750			
0.6917	44266.20	3.6580	3.6580	0.6329	5.95	-0.04	0.750			
0.6935	44383.39	3.6550	3.6552	0.6026	5.95	-0.04	0.750			
0.6953	44498.55	3.6520	3.6522	0.5737	5.95	-0.04	0.750			
0.6969	44603.12	3.6490	3.6491	0.5401	5.96	-0.03	0.750			
0.6986	44707.46	3.6460	3.6463	0.5140	5.96	-0.03	0.750			
0.7000	44802.71	3.6430	3.6430	0.4850	5.97	-0.02	0.750			
0.7014	44892.16	3.6400	3.6385	0.4500	5.97	-0.02	0.750			
0.7028	44976.59	3.6370	3.6370	0.4134	5.98	-0.01	0.750			
0.7040	45053.62	3.6340	3.6329	0.3850	5.98	-0.01	0.750			
0.7051	45125.41	3.6310	3.6313	0.3496	5.98	-0.01	0.750			
0.7061	45188.90	3.6280	3.6282	0.3125	5.99	-0.00	0.750			
0.7070	45245.76	3.6250	3.6248	0.2766	5.99	0.00	0.750			
0.7077	45295.08	3.6220	3.6221	0.2374	5.99	0.00	0.750			
0.7084	45335.60	3.6190	3.6193	0.1956	6.00	0.01	0.750			
0.7089	45371.37	3.6160	3.6162	0.1631	6.00	0.01	0.750			
0.7094	45398.61	3.6130	3.6133	0.1223	6.00	0.01	0.750			
0.7097	45418.65	3.6100	3.6103	0.0865	6.00	0.01	0.750			
0.7098	45430.17	3.5980	3.6005	-0.0816	6.00	0.01	0.750			
0.7100	45439.52	3.6070	2.9535	0.0491	6.00	0.01	0.726			
0.7100	45441.65	3.6010	2.7652	-0.0380	6.00	0.01	0.719			
0.7101	45444.77	3.6040	2.4901	0.0056	6.00	0.01	0.709			
