Ah_balance (normalized)	Ah_balance (mAh)	Voltage - fit (V)	Voltage -  interpolate (V)	dQ/dV (1/V)	Temperature (°C)	Temperature - diff (°C)	Current (C)	R_DC 0ms (mOhm)	R_DC 50ms (mOhm)	R_DC 50 ms PEC (mOhm)
0.0691	4423.51	3.9970	3.9964	-0.0895	5.99	0.00	-0.750			
0.0694	4442.98	3.9940	3.9938	-0.1169	5.99	0.00	-0.750			
0.0698	4468.24	3.9910	3.9910	-0.1462	5.99	0.00	-0.750			
0.0703	4499.54	3.9880	3.9881	-0.1732	5.99	0.00	-0.750			
0.0709	4535.84	3.9850	3.9850	-0.1981	5.99	0.00	-0.750			
0.0715	4577.73	3.9820	3.9820	-0.2233	5.99	0.00	-0.750			
0.0722	4622.29	3.9790	3.9791	-0.2470	5.99	-0.00	-0.750			
0.0730	4672.17	3.9760	3.9760	-0.2698	5.99	-0.00	-0.750			
0.0738	4725.79	3.9730	3.9730	-0.2951	5.99	-0.00	-0.750			
0.0747	4783.77	3.9700	3.9700	-0.3199	5.99	-0.00	-0.750			
0.0758	4848.30	3.9670	3.9670	-0.3460	5.98	-0.01	-0.750			
0.0768	4917.47	3.9640	3.9640	-0.3716	5.98	-0.01	-0.750			
0.0780	4992.06	3.9610	3.9610	-0.3971	5.98	-0.01	-0.750			
0.0792	5070.01	3.9580	3.9581	-0.4227	5.98	-0.01	-0.750			
0.0805	5153.54	3.9550	3.9550	-0.4490	5.98	-0.01	-0.750			
0.0819	5241.74	3.9520	3.9520	-0.4735	5.97	-0.02	-0.750			
0.0834	5334.84	3.9490	3.9489	-0.4989	5.97	-0.02	-0.750			
0.0849	5433.61	3.9460	3.9462	-0.5257	5.97	-0.02	-0.750			
0.0865	5537.63	3.9430	3.9430	-0.5514	5.97	-0.02	-0.750			
0.0882	5646.46	3.9400	3.9400	-0.5730	5.96	-0.03	-0.750			
0.0900	5758.33	3.9370	3.9370	-0.5943	5.96	-0.03	-0.750			
0.0918	5875.09	3.9340	3.9341	-0.6162	5.96	-0.03	-0.750			
0.0937	5995.90	3.9310	3.9310	-0.6350	5.96	-0.03	-0.750			
0.0956	6120.05	3.9280	3.9280	-0.6523	5.95	-0.04	-0.750			
0.0976	6247.50	3.9250	3.9250	-0.6631	5.95	-0.04	-0.750			
0.0996	6376.37	3.9220	3.9220	-0.6773	5.95	-0.04	-0.750			
0.1017	6507.01	3.9190	3.9191	-0.6936	5.96	-0.03	-0.750			
0.1038	6642.55	3.9160	3.9159	-0.7011	5.96	-0.03	-0.750			
0.1059	6779.07	3.9130	3.9129	-0.7092	5.96	-0.03	-0.750			
0.1081	6916.07	3.9100	3.9100	-0.7173	5.97	-0.02	-0.750			
0.1102	7054.84	3.9070	3.9071	-0.7267	5.97	-0.02	-0.750			
0.1124	7195.24	3.9040	3.9039	-0.7355	5.97	-0.02	-0.750			
0.1146	7335.61	3.9010	3.9009	-0.7394	5.97	-0.02	-0.750			
0.1169	7478.50	3.8980	3.8980	-0.7448	5.97	-0.02	-0.750			
0.1191	7623.59	3.8950	3.8951	-0.7567	5.97	-0.02	-0.750			
0.1214	7770.70	3.8920	3.8919	-0.7626	5.97	-0.02	-0.750			
0.1237	7916.91	3.8890	3.8889	-0.7647	5.97	-0.02	-0.750			
0.1260	8063.09	3.8860	3.8860	-0.7705	5.98	-0.01	-0.750			
0.1283	8211.51	3.8830	3.8830	-0.7742	5.98	-0.01	-0.750			
0.1306	8360.89	3.8800	3.8800	-0.7764	5.98	-0.01	-0.750			
0.1330	8513.14	3.8770	3.8769	-0.7786	5.99	-0.00	-0.750			
0.1353	8660.60	3.8740	3.8742	-0.7799	5.99	0.00	-0.750			
0.1377	8810.14	3.8710	3.8710	-0.7863	5.99	0.00	-0.750			
0.1400	8961.20	3.8680	3.8679	-0.7894	6.00	0.01	-0.750			
0.1424	9112.56	3.8650	3.8649	-0.7889	6.00	0.01	-0.750			
0.1448	9265.93	3.8620	3.8621	-0.7935	6.01	0.02	-0.750			
0.1472	9419.78	3.8590	3.8593	-0.8015	6.01	0.02	-0.750			
0.1496	9574.26	3.8560	3.8560	-0.8028	6.02	0.03	-0.750			
0.1520	9726.12	3.8530	3.8529	-0.8018	6.02	0.03	-0.750			
0.1544	9881.61	3.8500	3.8500	-0.8050	6.03	0.04	-0.750			
0.1568	10036.67	3.8470	3.8470	-0.8087	6.03	0.04	-0.750			
0.1593	10192.69	3.8440	3.8441	-0.8087	6.04	0.05	-0.750			
0.1617	10348.49	3.8410	3.8409	-0.8084	6.05	0.06	-0.750			
0.1641	10502.56	3.8380	3.8379	-0.8072	6.05	0.06	-0.750			
0.1665	10657.42	3.8350	3.8351	-0.8087	6.06	0.07	-0.750			
0.1689	10812.11	3.8320	3.8320	-0.8108	6.06	0.07	-0.750			
0.1714	10969.59	3.8290	3.8290	-0.8157	6.07	0.08	-0.750			
0.1738	11125.77	3.8260	3.8259	-0.8161	6.08	0.09	-0.750			
0.1763	11282.94	3.8230	3.8230	-0.8217	6.08	0.09	-0.750			
0.1788	11441.41	3.8200	3.8200	-0.8217	6.09	0.10	-0.750			
0.1812	11599.59	3.8170	3.8169	-0.8208	6.10	0.11	-0.750			
0.1837	11757.90	3.8140	3.8141	-0.8227	6.11	0.12	-0.750			
0.1862	11915.59	3.8110	3.8109	-0.8238	6.11	0.12	-0.750			
0.1886	12073.16	3.8080	3.8080	-0.8265	6.12	0.13	-0.750			
0.1911	12231.16	3.8050	3.8050	-0.8284	6.13	0.14	-0.750			
0.1936	12388.87	3.8020	3.8020	-0.8282	6.13	0.14	-0.750			
0.1961	12551.77	3.7990	3.7990	-0.8309	6.14	0.15	-0.750			
0.1986	12710.99	3.7960	3.7959	-0.8286	6.14	0.15	-0.750			
0.2011	12869.09	3.7930	3.7931	-0.8305	6.15	0.16	-0.750			
0.2036	13028.78	3.7900	3.7900	-0.8303	6.16	0.17	-0.750			
0.2061	13187.63	3.7870	3.7869	-0.8303	6.16	0.17	-0.750			
0.2086	13347.65	3.7840	3.7840	-0.8345	6.17	0.18	-0.750			
0.2111	13507.99	3.7810	3.7810	-0.8384	6.17	0.18	-0.750			
0.2136	13669.68	3.7780	3.7780	-0.8418	6.18	0.19	-0.750			
0.2161	13831.92	3.7750	3.7750	-0.8406	6.19	0.20	-0.750			
0.2187	13993.67	3.7720	3.7720	-0.8389	6.20	0.21	-0.750			
0.2212	14155.18	3.7690	3.7690	-0.8394	6.21	0.22	-0.750			
0.2237	14315.87	3.7660	3.7660	-0.8383	6.21	0.22	-0.750			
0.2262	14475.84	3.7630	3.7629	-0.8394	6.22	0.23	-0.750			
0.2287	14636.11	3.7600	3.7600	-0.8394	6.22	0.23	-0.750			
0.2312	14798.15	3.7570	3.7570	-0.8360	6.22	0.23	-0.750			
0.2337	14959.67	3.7540	3.7540	-0.8408	6.23	0.24	-0.750			
0.2363	15120.80	3.7510	3.7511	-0.8392	6.24	0.25	-0.750			
0.2388	15281.27	3.7480	3.7479	-0.8434	6.24	0.25	-0.750			
0.2413	15443.18	3.7450	3.7448	-0.8428	6.25	0.26	-0.750			
0.2438	15605.20	3.7420	3.7421	-0.8454	6.26	0.27	-0.750			
0.2464	15768.16	3.7390	3.7390	-0.8483	6.27	0.28	-0.750			
0.2490	15933.18	3.7360	3.7359	-0.8525	6.27	0.28	-0.750			
0.2515	16096.03	3.7330	3.7329	-0.8531	6.28	0.29	-0.750			
0.2540	16258.40	3.7300	3.7300	-0.8532	6.28	0.29	-0.750			
0.2566	16421.45	3.7270	3.7270	-0.8536	6.29	0.30	-0.750			
0.2592	16588.69	3.7240	3.7241	-0.8587	6.29	0.30	-0.750			
0.2618	16752.44	3.7210	3.7209	-0.8613	6.30	0.31	-0.750			
0.2643	16917.15	3.7180	3.7180	-0.8663	6.31	0.32	-0.750			
0.2669	17083.85	3.7150	3.7150	-0.8709	6.31	0.32	-0.750			
0.2695	17250.49	3.7120	3.7120	-0.8739	6.32	0.33	-0.750			
0.2722	17421.26	3.7090	3.7091	-0.8800	6.33	0.34	-0.750			
0.2749	17590.60	3.7060	3.7060	-0.8832	6.33	0.34	-0.750			
0.2775	17760.17	3.7030	3.7030	-0.8900	6.34	0.35	-0.750			
0.2802	17930.62	3.7000	3.7000	-0.8927	6.34	0.35	-0.750			
0.2828	18102.22	3.6970	3.6970	-0.8988	6.35	0.36	-0.750			
0.2856	18275.90	3.6940	3.6941	-0.9044	6.35	0.36	-0.750			
0.2883	18450.62	3.6910	3.6910	-0.9148	6.36	0.37	-0.750			
0.2911	18627.84	3.6880	3.6879	-0.9188	6.36	0.37	-0.750			
0.2938	18803.09	3.6850	3.6850	-0.9263	6.36	0.37	-0.750			
0.2966	18981.13	3.6820	3.6822	-0.9340	6.37	0.38	-0.750			
0.2994	19161.05	3.6790	3.6789	-0.9493	6.37	0.38	-0.750			
0.3023	19344.85	3.6760	3.6760	-0.9592	6.37	0.38	-0.750			
0.3052	19529.63	3.6730	3.6730	-0.9704	6.37	0.38	-0.750			
0.3081	19716.81	3.6700	3.6699	-0.9795	6.37	0.38	-0.750			
0.3111	19908.89	3.6670	3.6671	-0.9936	6.37	0.38	-0.750			
0.3141	20099.72	3.6640	3.6640	-1.0007	6.38	0.39	-0.750			
0.3171	20291.64	3.6610	3.6610	-1.0134	6.38	0.39	-0.750			
0.3201	20485.50	3.6580	3.6580	-1.0209	6.39	0.40	-0.750			
0.3232	20683.46	3.6550	3.6550	-1.0439	6.39	0.40	-0.750			
0.3263	20886.17	3.6520	3.6519	-1.0549	6.40	0.41	-0.750			
0.3295	21090.56	3.6490	3.6490	-1.0694	6.40	0.41	-0.750			
0.3328	21297.19	3.6460	3.6460	-1.0857	6.41	0.42	-0.750			
0.3361	21507.62	3.6430	3.6430	-1.1030	6.41	0.42	-0.750			
0.3394	21721.29	3.6400	3.6399	-1.1115	6.41	0.42	-0.750			
0.3428	21936.67	3.6370	3.6370	-1.1253	6.41	0.42	-0.750			
0.3461	22151.88	3.6340	3.6341	-1.1363	6.41	0.42	-0.750			
0.3496	22372.40	3.6310	3.6310	-1.1626	6.41	0.42	-0.750			
0.3531	22595.97	3.6280	3.6279	-1.1764	6.41	0.42	-0.750			
0.3566	22823.16	3.6250	3.6249	-1.1945	6.42	0.43	-0.750			
0.3602	23054.60	3.6220	3.6222	-1.2148	6.42	0.43	-0.750			
0.3640	23293.05	3.6190	3.6189	-1.2404	6.42	0.43	-0.750			
0.3677	23531.72	3.6160	3.6160	-1.2539	6.43	0.44	-0.750			
0.3714	23772.71	3.6130	3.6130	-1.2676	6.43	0.44	-0.750			
0.3753	24019.47	3.6100	3.6100	-1.2773	6.43	0.44	-0.750			
0.3792	24266.68	3.6070	3.6070	-1.2972	6.43	0.44	-0.750			
0.3830	24514.65	3.6040	3.6041	-1.3153	6.43	0.44	-0.750			
0.3870	24768.09	3.6010	3.6008	-1.3341	6.43	0.44	-0.750			
0.3910	25026.10	3.5980	3.5989	-1.3554	6.44	0.45	-0.750	0.492	1.177	
0.3952	25290.08	3.5950	3.5949	-1.3807	6.44	0.45	-0.750			
0.3994	25559.26	3.5920	3.5920	-1.4013	6.44	0.45	-0.750			
0.4036	25831.67	3.5890	3.5890	-1.4185	6.45	0.46	-0.750			
0.4079	26105.70	3.5860	3.5860	-1.4345	6.45	0.46	-0.750			
0.4122	26381.10	3.5830	3.5829	-1.4437	6.45	0.46	-0.750			
0.4165	26657.23	3.5800	3.5800	-1.4727	6.46	0.47	-0.750			
0.4210	26941.15	3.5770	3.5769	-1.4859	6.47	0.48	-0.750			
0.4254	27228.17	3.5740	3.5739	-1.5102	6.47	0.48	-0.750			
0.4300	27520.69	3.5710	3.5709	-1.5500	6.47	0.48	-0.750			
0.4347	27821.52	3.5680	3.5680	-1.5776	6.47	0.48	-0.750			
0.4395	28129.58	3.5650	3.5650	-1.5954	6.47	0.48	-0.750			
0.4444	28444.51	3.5620	3.5619	-1.5951	6.48	0.49	-0.750			
0.4492	28748.98	3.5590	3.5589	-1.5966	6.48	0.49	-0.750			
0.4539	29052.23	3.5560	3.5562	-1.6197	6.49	0.50	-0.750			
0.4587	29359.36	3.5530	3.5528	-1.6335	6.49	0.50	-0.750			
0.4636	29671.18	3.5500	3.5499	-1.6491	6.49	0.50	-0.750			
0.4687	29994.28	3.5470	3.5469	-1.6740	6.49	0.50	-0.750			
0.4738	30325.87	3.5440	3.5441	-1.7104	6.49	0.50	-0.750			
0.4789	30650.22	3.5410	3.5409	-1.7163	6.50	0.51	-0.750			
0.4841	30982.44	3.5380	3.5377	-1.7359	6.50	0.51	-0.750			
0.4893	31316.11	3.5350	3.5351	-1.7379	6.50	0.51	-0.750			
0.4946	31655.06	3.5320	3.5319	-1.7646	6.49	0.50	-0.750			
0.5000	31997.63	3.5290	3.5288	-1.7537	6.49	0.50	-0.750			
0.5052	32333.39	3.5260	3.5258	-1.7780	6.50	0.51	-0.750			
0.5105	32671.80	3.5230	3.5230	-1.7950	6.50	0.51	-0.750			
0.5159	33016.54	3.5200	3.5202	-1.7943	6.51	0.52	-0.750			
0.5214	33370.23	3.5170	3.5171	-1.8031	6.51	0.52	-0.750			
0.5267	33711.23	3.5140	3.5142	-1.7981	6.52	0.53	-0.750			
0.5322	34057.64	3.5110	3.5110	-1.7824	6.53	0.54	-0.750			
0.5375	34400.67	3.5080	3.5077	-1.7644	6.53	0.54	-0.750			
0.5428	34741.73	3.5050	3.5050	-1.7779	6.53	0.54	-0.750			
0.5482	35084.21	3.5020	3.5021	-1.7779	6.53	0.54	-0.750			
0.5535	35423.00	3.4990	3.4990	-1.7663	6.54	0.55	-0.750			
0.5588	35763.68	3.4960	3.4962	-1.7497	6.54	0.55	-0.750			
0.5640	36094.31	3.4930	3.4929	-1.7410	6.54	0.55	-0.750			
0.5692	36431.58	3.4900	3.4899	-1.7381	6.55	0.56	-0.750			
0.5744	36759.28	3.4870	3.4869	-1.6901	6.56	0.57	-0.750			
0.5795	37090.44	3.4840	3.4841	-1.6933	6.57	0.58	-0.750			
0.5845	37410.60	3.4810	3.4813	-1.6737	6.58	0.59	-0.750			
0.5895	37729.87	3.4780	3.4777	-1.6443	6.59	0.60	-0.750			
0.5944	38042.54	3.4750	3.4750	-1.6419	6.60	0.61	-0.750			
0.5993	38352.83	3.4720	3.4722	-1.6082	6.61	0.62	-0.750			
0.6042	38668.29	3.4690	3.4688	-1.6095	6.62	0.63	-0.750			
0.6090	38975.86	3.4660	3.4663	-1.5848	6.63	0.64	-0.750			
0.6137	39274.50	3.4630	3.4629	-1.5555	6.64	0.65	-0.750			
0.6183	39573.25	3.4600	3.4602	-1.5343	6.64	0.65	-0.750			
0.6230	39871.95	3.4570	3.4570	-1.5097	6.65	0.66	-0.750			
0.6274	40154.78	3.4540	3.4541	-1.4691	6.66	0.67	-0.750			
0.6318	40435.80	3.4510	3.4509	-1.4451	6.67	0.68	-0.750			
0.6361	40708.25	3.4480	3.4478	-1.4147	6.69	0.70	-0.750			
0.6403	40978.52	3.4450	3.4449	-1.3868	6.70	0.71	-0.750			
0.6444	41239.84	3.4420	3.4419	-1.3484	6.72	0.73	-0.750			
0.6483	41493.93	3.4390	3.4391	-1.3157	6.73	0.74	-0.750			
0.6524	41750.59	3.4360	3.4361	-1.3089	6.75	0.76	-0.750			
0.6562	41995.12	3.4330	3.4330	-1.2698	6.76	0.77	-0.750			
0.6599	42235.36	3.4300	3.4298	-1.2358	6.77	0.78	-0.750			
0.6636	42472.95	3.4270	3.4270	-1.2117	6.78	0.79	-0.750			
0.6672	42700.27	3.4240	3.4241	-1.1916	6.79	0.80	-0.750			
0.6707	42925.83	3.4210	3.4210	-1.1702	6.81	0.82	-0.750			
0.6742	43146.77	3.4180	3.4179	-1.1477	6.82	0.83	-0.750			
0.6776	43366.97	3.4150	3.4148	-1.1215	6.84	0.85	-0.750			
0.6810	43585.58	3.4120	3.4122	-1.0916	6.85	0.86	-0.750			
0.6843	43792.55	3.4090	3.4092	-1.0549	6.87	0.88	-0.750			
0.6874	43993.41	3.4060	3.4060	-1.0242	6.88	0.89	-0.750			
0.6904	44182.98	3.4030	3.4029	-0.9806	6.89	0.90	-0.750			
0.6932	44363.57	3.4000	3.3999	-0.9407	6.90	0.91	-0.750			
0.6959	44540.39	3.3970	3.3970	-0.9152	6.92	0.93	-0.750			
0.6987	44716.66	3.3940	3.3939	-0.8917	6.93	0.94	-0.750			
0.7013	44883.92	3.3910	3.3910	-0.8687	6.94	0.95	-0.750			
0.7038	45046.09	3.3880	3.3879	-0.8452	6.95	0.96	-0.750			
0.7063	45204.53	3.3850	3.3850	-0.8375	6.96	0.97	-0.750			
0.7088	45364.75	3.3820	3.3819	-0.8370	6.97	0.98	-0.750			
