Ah_balance (normalized)	Ah_balance (mAh)	Voltage - fit (V)	Voltage -  interpolate (V)	dQ/dV (1/V)	Temperature (°C)	Temperature - diff (°C)	Current (C)	R_DC 0ms (mOhm)	R_DC 50ms (mOhm)	R_DC 50 ms PEC (mOhm)
0.1748	11188.47	4.0820	4.0820	0.7626	7.68	1.71	0.750			
0.1771	11334.84	4.0790	4.0790	0.7655	7.68	1.71	0.750			
0.1794	11482.93	4.0760	4.0759	0.7730	7.67	1.70	0.750			
0.1818	11632.69	4.0730	4.0729	0.7769	7.67	1.70	0.750			
0.1841	11782.47	4.0700	4.0700	0.7774	7.66	1.69	0.750			
0.1864	11932.80	4.0670	4.0671	0.7787	7.65	1.68	0.750			
0.1888	12082.46	4.0640	4.0640	0.7845	7.65	1.68	0.750			
0.1911	12230.93	4.0610	4.0610	0.7844	7.64	1.67	0.750			
0.1935	12382.26	4.0580	4.0580	0.7887	7.64	1.67	0.750			
0.1959	12536.38	4.0550	4.0549	0.7865	7.63	1.66	0.750			
0.1982	12685.81	4.0520	4.0521	0.7924	7.62	1.65	0.750			
0.2006	12838.21	4.0490	4.0491	0.7992	7.61	1.64	0.750			
0.2030	12991.36	4.0460	4.0461	0.8031	7.60	1.63	0.750			
0.2054	13144.87	4.0430	4.0428	0.8033	7.59	1.62	0.750			
0.2078	13301.64	4.0400	4.0401	0.8075	7.58	1.61	0.750			
0.2103	13458.15	4.0370	4.0370	0.8135	7.56	1.59	0.750			
0.2127	13614.99	4.0340	4.0340	0.8154	7.55	1.58	0.750			
0.2152	13769.82	4.0310	4.0310	0.8159	7.54	1.57	0.750			
0.2176	13925.45	4.0280	4.0279	0.8208	7.53	1.56	0.750			
0.2201	14084.42	4.0250	4.0250	0.8278	7.53	1.56	0.750			
0.2226	14244.68	4.0220	4.0220	0.8281	7.52	1.55	0.750			
0.2251	14404.50	4.0190	4.0190	0.8274	7.52	1.55	0.750			
0.2275	14562.28	4.0160	4.0161	0.8313	7.51	1.54	0.750			
0.2300	14721.37	4.0130	4.0128	0.8327	7.51	1.54	0.750			
0.2325	14882.11	4.0100	4.0100	0.8333	7.50	1.53	0.750			
0.2350	15041.91	4.0070	4.0070	0.8413	7.49	1.52	0.750			
0.2376	15205.72	4.0040	4.0041	0.8478	7.47	1.50	0.750			
0.2401	15368.58	4.0010	4.0010	0.8502	7.46	1.49	0.750			
0.2427	15532.62	3.9980	3.9979	0.8566	7.45	1.48	0.750			
0.2453	15697.26	3.9950	3.9950	0.8542	7.44	1.47	0.750			
0.2478	15861.44	3.9920	3.9920	0.8606	7.43	1.46	0.750			
0.2504	16026.84	3.9890	3.9891	0.8659	7.42	1.45	0.750			
0.2530	16192.57	3.9860	3.9860	0.8701	7.42	1.45	0.750			
0.2556	16361.24	3.9830	3.9830	0.8762	7.41	1.44	0.750			
0.2583	16530.80	3.9800	3.9800	0.8744	7.40	1.43	0.750			
0.2609	16698.89	3.9770	3.9770	0.8789	7.39	1.42	0.750			
0.2636	16867.87	3.9740	3.9740	0.8848	7.38	1.41	0.750			
0.2662	17036.36	3.9710	3.9710	0.8869	7.37	1.40	0.750			
0.2689	17207.92	3.9680	3.9680	0.8912	7.36	1.39	0.750			
0.2716	17380.08	3.9650	3.9650	0.8896	7.35	1.38	0.750			
0.2742	17551.14	3.9620	3.9621	0.8970	7.34	1.37	0.750			
0.2769	17724.34	3.9590	3.9590	0.9050	7.33	1.36	0.750			
0.2796	17895.80	3.9560	3.9557	0.9102	7.32	1.35	0.750			
0.2824	18072.80	3.9530	3.9530	0.9054	7.31	1.34	0.750			
0.2851	18245.51	3.9500	3.9501	0.9199	7.30	1.33	0.750			
0.2879	18425.46	3.9470	3.9470	0.9320	7.29	1.32	0.750			
0.2907	18605.24	3.9440	3.9441	0.9392	7.28	1.31	0.750			
0.2935	18783.88	3.9410	3.9409	0.9364	7.27	1.30	0.750			
0.2963	18965.78	3.9380	3.9381	0.9314	7.26	1.29	0.750			
0.2991	19142.38	3.9350	3.9351	0.9443	7.25	1.28	0.750			
0.3020	19324.84	3.9320	3.9321	0.9581	7.24	1.27	0.750			
0.3048	19507.28	3.9290	3.9285	0.9592	7.23	1.26	0.750			
0.3077	19694.38	3.9260	3.9261	0.9635	7.22	1.25	0.750			
0.3106	19879.93	3.9230	3.9232	0.9716	7.21	1.24	0.750			
0.3136	20070.68	3.9200	3.9200	0.9826	7.20	1.23	0.750			
0.3165	20256.16	3.9170	3.9170	0.9821	7.19	1.22	0.750			
0.3194	20444.53	3.9140	3.9140	0.9892	7.18	1.21	0.750			
0.3224	20634.36	3.9110	3.9111	1.0072	7.17	1.20	0.750			
0.3255	20831.57	3.9080	3.9080	1.0212	7.15	1.18	0.750			
0.3286	21030.93	3.9050	3.9049	1.0328	7.14	1.17	0.750			
0.3318	21233.07	3.9020	3.9021	1.0286	7.13	1.16	0.750			
0.3348	21430.27	3.8990	3.8991	1.0375	7.12	1.15	0.750			
0.3379	21627.55	3.8960	3.8961	1.0439	7.12	1.15	0.750			
0.3410	21826.81	3.8930	3.8930	1.0534	7.11	1.14	0.750			
0.3442	22028.06	3.8900	3.8900	1.0596	7.10	1.13	0.750			
0.3474	22231.83	3.8870	3.8871	1.0829	7.09	1.12	0.750			
0.3507	22442.03	3.8840	3.8840	1.0994	7.08	1.11	0.750			
0.3541	22661.38	3.8810	3.8808	1.1167	7.07	1.10	0.750			
0.3574	22872.71	3.8780	3.8781	1.1226	7.06	1.09	0.750			
0.3608	23089.90	3.8750	3.8751	1.1368	7.04	1.07	0.750			
0.3642	23308.37	3.8720	3.8720	1.1517	7.02	1.05	0.750			
0.3677	23532.43	3.8690	3.8688	1.1533	7.01	1.04	0.750			
0.3711	23752.59	3.8660	3.8661	1.1696	7.00	1.03	0.750			
0.3747	23980.77	3.8630	3.8631	1.1916	6.99	1.02	0.750			
0.3783	24211.51	3.8600	3.8600	1.2098	6.97	1.00	0.750			
0.3819	24442.59	3.8570	3.8571	1.2264	6.96	0.99	0.750			
0.3856	24680.05	3.8540	3.8540	1.2472	6.95	0.98	0.750			
0.3894	24923.65	3.8510	3.8511	1.2646	6.94	0.97	0.750			
0.3933	25171.87	3.8480	3.8479	1.2904	6.93	0.96	0.750			
0.3971	25413.99	3.8450	3.8452	1.3143	6.91	0.94	0.750			
0.4011	25668.94	3.8420	3.8420	1.3432	6.89	0.92	0.750			
0.4051	25928.00	3.8390	3.8388	1.3812	6.87	0.90	0.750			
0.4093	26196.89	3.8360	3.8364	1.4201	6.85	0.88	0.750	0.361	0.852	
0.4138	26480.47	3.8330	3.8331	1.4431	6.83	0.86	0.750			
0.4182	26763.69	3.8300	3.8299	1.4637	6.82	0.85	0.750			
0.4226	27047.05	3.8270	3.8271	1.4827	6.80	0.83	0.750			
0.4270	27328.38	3.8240	3.8241	1.4940	6.78	0.81	0.750			
0.4316	27619.60	3.8210	3.8212	1.5264	6.76	0.79	0.750			
0.4361	27910.70	3.8180	3.8182	1.5319	6.74	0.77	0.750			
0.4408	28209.18	3.8150	3.8150	1.5462	6.73	0.76	0.750			
0.4454	28506.68	3.8120	3.8121	1.5746	6.71	0.74	0.750			
0.4503	28817.61	3.8090	3.8088	1.6044	6.69	0.72	0.750			
0.4550	29120.52	3.8060	3.8059	1.6473	6.67	0.70	0.750			
0.4600	29440.68	3.8030	3.8031	1.6884	6.64	0.67	0.750			
0.4652	29773.71	3.8000	3.7999	1.7236	6.62	0.65	0.750			
0.4704	30106.88	3.7970	3.7972	1.7578	6.60	0.63	0.750			
0.4758	30451.25	3.7940	3.7940	1.7858	6.58	0.61	0.750			
0.4813	30802.02	3.7910	3.7910	1.8389	6.56	0.59	0.750			
0.4868	31152.50	3.7880	3.7879	1.8510	6.54	0.57	0.750			
0.4924	31510.74	3.7850	3.7847	1.8573	6.51	0.54	0.750			
0.4979	31867.46	3.7820	3.7820	1.8688	6.48	0.51	0.750			
0.5036	32230.33	3.7790	3.7789	1.8742	6.46	0.49	0.750			
0.5093	32597.77	3.7760	3.7761	1.8732	6.44	0.47	0.750			
0.5149	32956.56	3.7730	3.7732	1.8976	6.42	0.45	0.750			
0.5207	33322.09	3.7700	3.7703	1.9200	6.39	0.42	0.750			
0.5265	33699.08	3.7670	3.7671	1.9578	6.37	0.40	0.750			
0.5325	34078.01	3.7640	3.7642	1.9817	6.34	0.37	0.750			
0.5385	34465.15	3.7610	3.7611	2.0194	6.32	0.35	0.750			
0.5445	34848.99	3.7580	3.7579	2.0207	6.30	0.33	0.750			
0.5507	35244.28	3.7550	3.7550	2.0456	6.28	0.31	0.750			
0.5568	35635.56	3.7520	3.7520	2.0783	6.26	0.29	0.750			
0.5629	36025.10	3.7490	3.7491	2.1037	6.23	0.26	0.750			
0.5693	36433.69	3.7460	3.7459	2.1688	6.20	0.23	0.750			
0.5759	36855.72	3.7430	3.7431	2.2384	6.18	0.21	0.750			
0.5828	37300.49	3.7400	3.7400	2.3256	6.16	0.19	0.750			
0.5898	37748.36	3.7370	3.7368	2.3877	6.14	0.17	0.750			
0.5971	38213.64	3.7340	3.7339	2.4419	6.11	0.14	0.750			
0.6045	38688.60	3.7310	3.7309	2.4935	6.09	0.12	0.750			
0.6120	39168.36	3.7280	3.7280	2.4439	6.07	0.10	0.750			
0.6194	39641.39	3.7250	3.7253	2.4706	6.05	0.08	0.750			
0.6267	40105.95	3.7220	3.7219	2.3886	6.04	0.07	0.750			
0.6337	40556.21	3.7190	3.7190	2.3644	6.02	0.05	0.750			
0.6410	41021.64	3.7160	3.7161	2.3806	6.01	0.04	0.750			
0.6482	41482.66	3.7130	3.7133	2.2126	6.00	0.03	0.750			
0.6546	41892.71	3.7100	3.7100	1.9749	5.99	0.02	0.750			
0.6597	42217.81	3.7070	3.7068	1.6403	5.98	0.01	0.750			
0.6642	42510.42	3.7040	3.7040	1.4484	5.97	0.00	0.750			
0.6678	42736.79	3.7010	3.7009	1.2403	5.97	-0.00	0.750			
0.6712	42953.62	3.6980	3.6979	1.1290	5.97	-0.00	0.750			
0.6742	43149.17	3.6950	3.6951	1.0430	5.96	-0.01	0.750			
0.6773	43346.03	3.6920	3.6921	1.0098	5.96	-0.01	0.750			
0.6802	43533.20	3.6890	3.6887	0.9673	5.96	-0.01	0.750			
0.6831	43715.64	3.6860	3.6860	0.9290	5.96	-0.01	0.750			
0.6858	43890.79	3.6830	3.6831	0.9031	5.96	-0.01	0.750			
0.6885	44062.06	3.6800	3.6801	0.8809	5.95	-0.02	0.750			
0.6910	44226.68	3.6770	3.6770	0.8489	5.95	-0.02	0.750			
0.6936	44389.08	3.6740	3.6740	0.8233	5.95	-0.02	0.750			
0.6960	44544.60	3.6710	3.6710	0.7932	5.95	-0.02	0.750			
0.6984	44695.95	3.6680	3.6681	0.7629	5.95	-0.02	0.750			
0.7006	44840.66	3.6650	3.6651	0.7337	5.95	-0.02	0.750			
0.7027	44975.97	3.6620	3.6619	0.6983	5.95	-0.02	0.750			
0.7048	45106.30	3.6590	3.6588	0.6681	5.95	-0.02	0.750			
0.7067	45231.02	3.6560	3.6560	0.6368	5.95	-0.02	0.750			
0.7086	45351.19	3.6530	3.6530	0.6088	5.96	-0.01	0.750			
0.7104	45466.90	3.6500	3.6500	0.5807	5.96	-0.01	0.750			
0.7121	45576.52	3.6470	3.6469	0.5449	5.96	-0.01	0.750			
0.7137	45676.86	3.6440	3.6441	0.5104	5.96	-0.01	0.750			
0.7152	45772.00	3.6410	3.6411	0.4767	5.97	-0.00	0.750			
0.7166	45859.54	3.6380	3.6381	0.4445	5.97	-0.00	0.750			
0.7178	45941.87	3.6350	3.6350	0.4121	5.97	0.00	0.750			
0.7190	46017.84	3.6320	3.6320	0.3766	5.97	0.00	0.750			
0.7201	46087.53	3.6290	3.6290	0.3415	5.97	0.00	0.750			
0.7211	46151.72	3.6260	3.6260	0.3087	5.98	0.01	0.750			
0.7220	46207.13	3.6230	3.6230	0.2647	5.98	0.01	0.750			
0.7227	46254.90	3.6200	3.6199	0.2257	5.98	0.01	0.750			
0.7233	46293.71	3.6170	3.6171	0.1820	5.98	0.01	0.750			
0.7238	46325.34	3.6140	3.6141	0.1403	5.98	0.01	0.750			
0.7242	46348.56	3.6110	3.6112	0.0970	5.98	0.01	0.750			
0.7244	46364.49	3.6080	3.6070	0.0518	5.98	0.01	0.750			
0.7245	46366.51	3.6020	3.6050	-0.0413	5.98	0.01	0.750			
0.7245	46369.96	3.6050	3.5974	0.0052	5.98	0.01	0.748			
