Ah_balance (normalized)	Ah_balance (mAh)	Voltage - fit (V)	Voltage -  interpolate (V)	dQ/dV (1/V)	Temperature (°C)	Temperature - diff (°C)	Current (C)	R_DC 0ms (mOhm)	R_DC 50ms (mOhm)	R_DC 50 ms PEC (mOhm)
0.1757	11244.58	4.0820	4.0820	0.7657	7.94	1.95	0.750			
0.1780	11392.29	4.0790	4.0789	0.7698	7.93	1.94	0.750			
0.1803	11540.07	4.0760	4.0761	0.7692	7.93	1.94	0.750			
0.1826	11688.03	4.0730	4.0730	0.7668	7.92	1.93	0.750			
0.1849	11834.49	4.0700	4.0700	0.7702	7.92	1.93	0.750			
0.1872	11981.11	4.0670	4.0670	0.7754	7.91	1.92	0.750			
0.1895	12128.78	4.0640	4.0640	0.7808	7.90	1.91	0.750			
0.1919	12280.87	4.0610	4.0609	0.7872	7.90	1.91	0.750			
0.1943	12432.98	4.0580	4.0580	0.7914	7.89	1.90	0.750			
0.1967	12587.53	4.0550	4.0550	0.7937	7.89	1.90	0.750			
0.1991	12740.50	4.0520	4.0520	0.7924	7.88	1.89	0.750			
0.2014	12890.11	4.0490	4.0490	0.7910	7.88	1.89	0.750			
0.2038	13041.23	4.0460	4.0459	0.7987	7.87	1.88	0.750			
0.2062	13194.73	4.0430	4.0430	0.7987	7.86	1.87	0.750			
0.2086	13350.45	4.0400	4.0400	0.7968	7.86	1.87	0.750			
0.2110	13504.39	4.0370	4.0371	0.8073	7.85	1.86	0.750			
0.2134	13659.99	4.0340	4.0340	0.8129	7.84	1.85	0.750			
0.2159	13815.76	4.0310	4.0308	0.8120	7.83	1.84	0.750			
0.2183	13971.34	4.0280	4.0281	0.8140	7.82	1.83	0.750			
0.2207	14127.82	4.0250	4.0251	0.8127	7.82	1.83	0.750			
0.2232	14285.46	4.0220	4.0220	0.8209	7.81	1.82	0.750			
0.2257	14443.92	4.0190	4.0190	0.8251	7.80	1.81	0.750			
0.2281	14600.08	4.0160	4.0159	0.8260	7.79	1.80	0.750			
0.2306	14758.93	4.0130	4.0131	0.8348	7.79	1.80	0.750			
0.2332	14922.34	4.0100	4.0101	0.8376	7.78	1.79	0.750			
0.2357	15082.73	4.0070	4.0070	0.8394	7.77	1.78	0.750			
0.2382	15244.64	4.0040	4.0041	0.8443	7.76	1.77	0.750			
0.2407	15405.76	4.0010	4.0010	0.8449	7.75	1.76	0.750			
0.2432	15567.78	3.9980	3.9980	0.8510	7.75	1.76	0.750			
0.2458	15731.80	3.9950	3.9950	0.8508	7.74	1.75	0.750			
0.2484	15894.96	3.9920	3.9920	0.8563	7.73	1.74	0.750			
0.2510	16060.81	3.9890	3.9890	0.8650	7.73	1.74	0.750			
0.2536	16227.73	3.9860	3.9858	0.8676	7.72	1.73	0.750			
0.2562	16394.42	3.9830	3.9829	0.8702	7.71	1.72	0.750			
0.2588	16563.34	3.9800	3.9801	0.8694	7.70	1.71	0.750			
0.2614	16729.69	3.9770	3.9770	0.8711	7.69	1.70	0.750			
0.2640	16897.63	3.9740	3.9740	0.8793	7.68	1.69	0.750			
0.2666	17064.68	3.9710	3.9710	0.8832	7.67	1.68	0.750			
0.2693	17233.93	3.9680	3.9680	0.8850	7.66	1.67	0.750			
0.2720	17405.00	3.9650	3.9651	0.8969	7.65	1.66	0.750			
0.2747	17579.04	3.9620	3.9620	0.9042	7.64	1.65	0.750			
0.2774	17754.72	3.9590	3.9590	0.9057	7.64	1.65	0.750			
0.2801	17928.20	3.9560	3.9560	0.9059	7.63	1.64	0.750			
0.2828	18102.20	3.9530	3.9531	0.9038	7.62	1.63	0.750			
0.2855	18273.80	3.9500	3.9500	0.9098	7.61	1.62	0.750			
0.2883	18448.50	3.9470	3.9470	0.9160	7.60	1.61	0.750			
0.2910	18623.14	3.9440	3.9438	0.9223	7.59	1.60	0.750			
0.2938	18802.84	3.9410	3.9411	0.9333	7.58	1.59	0.750			
0.2966	18983.68	3.9380	3.9381	0.9448	7.57	1.58	0.750			
0.2995	19166.96	3.9350	3.9350	0.9517	7.55	1.56	0.750			
0.3023	19348.71	3.9320	3.9321	0.9534	7.54	1.55	0.750			
0.3052	19534.45	3.9290	3.9290	0.9569	7.53	1.54	0.750			
0.3081	19717.84	3.9260	3.9260	0.9681	7.52	1.53	0.750			
0.3110	19904.32	3.9230	3.9230	0.9747	7.51	1.52	0.750			
0.3139	20092.73	3.9200	3.9200	0.9824	7.50	1.51	0.750			
0.3169	20282.10	3.9170	3.9169	0.9868	7.49	1.50	0.750			
0.3199	20472.51	3.9140	3.9141	0.9890	7.48	1.49	0.750			
0.3228	20660.35	3.9110	3.9111	0.9956	7.47	1.48	0.750			
0.3258	20851.88	3.9080	3.9080	1.0101	7.46	1.47	0.750			
0.3288	21044.48	3.9050	3.9048	1.0167	7.45	1.46	0.750			
0.3319	21241.42	3.9020	3.9021	1.0355	7.44	1.45	0.750			
0.3350	21442.81	3.8990	3.8990	1.0489	7.42	1.43	0.750			
0.3383	21650.52	3.8960	3.8960	1.0552	7.41	1.42	0.750			
0.3415	21854.95	3.8930	3.8929	1.0543	7.39	1.40	0.750			
0.3446	22055.56	3.8900	3.8901	1.0442	7.38	1.39	0.750			
0.3477	22252.19	3.8870	3.8871	1.0568	7.36	1.37	0.750			
0.3508	22451.85	3.8840	3.8840	1.0667	7.35	1.36	0.750			
0.3540	22657.73	3.8810	3.8806	1.0746	7.33	1.34	0.750			
0.3573	22864.85	3.8780	3.8781	1.0989	7.32	1.33	0.750			
0.3606	23078.63	3.8750	3.8752	1.1241	7.30	1.31	0.750			
0.3640	23299.11	3.8720	3.8720	1.1476	7.29	1.30	0.750			
0.3675	23520.83	3.8690	3.8691	1.1559	7.28	1.29	0.750			
0.3710	23744.23	3.8660	3.8660	1.1772	7.26	1.27	0.750			
0.3746	23972.97	3.8630	3.8631	1.1968	7.25	1.26	0.750			
0.3782	24206.54	3.8600	3.8598	1.2145	7.23	1.24	0.750			
0.3819	24440.46	3.8570	3.8572	1.2275	7.22	1.23	0.750			
0.3856	24676.81	3.8540	3.8540	1.2429	7.20	1.21	0.750			
0.3893	24916.59	3.8510	3.8511	1.2636	7.18	1.19	0.750			
0.3932	25162.30	3.8480	3.8480	1.2702	7.16	1.17	0.750			
0.3969	25402.35	3.8450	3.8451	1.3115	7.14	1.15	0.750			
0.4009	25656.70	3.8420	3.8421	1.3464	7.13	1.14	0.750			
0.4050	25919.74	3.8390	3.8389	1.3838	7.11	1.12	0.750	0.393	0.876	
0.4092	26190.23	3.8360	3.8362	1.4108	7.09	1.10	0.750			
0.4136	26470.44	3.8330	3.8331	1.4323	7.06	1.07	0.750			
0.4179	26747.12	3.8300	3.8300	1.4602	7.04	1.05	0.750			
0.4223	27029.40	3.8270	3.8270	1.4600	7.02	1.03	0.750			
0.4267	27308.38	3.8240	3.8241	1.4821	7.00	1.01	0.750			
0.4312	27596.81	3.8210	3.8212	1.5184	6.98	0.99	0.750			
0.4358	27888.74	3.8180	3.8178	1.5578	6.96	0.97	0.750			
0.4405	28193.28	3.8150	3.8149	1.5698	6.94	0.95	0.750			
0.4453	28497.08	3.8120	3.8120	1.5800	6.93	0.94	0.750			
0.4501	28805.76	3.8090	3.8092	1.6226	6.91	0.92	0.750			
0.4549	29113.27	3.8060	3.8057	1.6636	6.89	0.90	0.750			
0.4599	29431.97	3.8030	3.8030	1.7097	6.86	0.87	0.750			
0.4651	29767.86	3.8000	3.8000	1.7360	6.84	0.85	0.750			
0.4706	30117.13	3.7970	3.7968	1.7715	6.81	0.82	0.750			
0.4760	30461.02	3.7940	3.7943	1.7924	6.78	0.79	0.750			
0.4813	30805.09	3.7910	3.7910	1.7786	6.76	0.77	0.750			
0.4867	31149.27	3.7880	3.7880	1.8013	6.73	0.74	0.750			
0.4920	31485.67	3.7850	3.7848	1.8515	6.71	0.72	0.750			
0.4976	31848.28	3.7820	3.7817	1.8943	6.68	0.69	0.750			
0.5035	32221.81	3.7790	3.7789	1.9185	6.65	0.66	0.750			
0.5094	32603.19	3.7760	3.7759	1.9115	6.62	0.63	0.750			
0.5153	32976.40	3.7730	3.7730	1.9054	6.60	0.61	0.750			
0.5207	33321.83	3.7700	3.7701	1.9224	6.57	0.58	0.750			
0.5266	33700.58	3.7670	3.7671	1.9041	6.54	0.55	0.750			
0.5322	34061.65	3.7640	3.7643	1.9060	6.51	0.52	0.750			
0.5380	34430.70	3.7610	3.7611	1.9513	6.49	0.50	0.750			
0.5438	34800.37	3.7580	3.7580	1.9580	6.46	0.47	0.750			
0.5499	35192.73	3.7550	3.7550	2.0481	6.43	0.44	0.750			
0.5561	35587.76	3.7520	3.7520	2.0947	6.40	0.41	0.750			
0.5624	35994.64	3.7490	3.7489	2.1403	6.37	0.38	0.750			
0.5689	36407.72	3.7460	3.7462	2.1807	6.34	0.35	0.750			
0.5755	36830.53	3.7430	3.7431	2.2233	6.31	0.32	0.750			
0.5822	37259.23	3.7400	3.7399	2.2362	6.29	0.30	0.750			
0.5890	37696.49	3.7370	3.7369	2.3100	6.26	0.27	0.750			
0.5960	38141.19	3.7340	3.7340	2.3257	6.23	0.24	0.750			
0.6029	38588.68	3.7310	3.7311	2.3875	6.20	0.21	0.750			
0.6102	39053.04	3.7280	3.7280	2.4733	6.17	0.18	0.750			
0.6178	39542.39	3.7250	3.7249	2.4730	6.15	0.16	0.750			
0.6254	40028.59	3.7220	3.7220	2.4638	6.12	0.13	0.750			
0.6328	40502.34	3.7190	3.7188	2.3178	6.10	0.11	0.750			
0.6395	40928.76	3.7160	3.7164	2.1544	6.08	0.09	0.750			
0.6456	41320.45	3.7130	3.7132	1.9461	6.06	0.07	0.750			
0.6511	41669.79	3.7100	3.7101	1.7333	6.04	0.05	0.750			
0.6561	41987.72	3.7070	3.7072	1.5986	6.03	0.04	0.750			
0.6605	42269.89	3.7040	3.7041	1.4150	6.02	0.03	0.750			
0.6645	42527.62	3.7010	3.7010	1.2959	6.01	0.02	0.750			
0.6681	42757.71	3.6980	3.6980	1.1762	6.01	0.02	0.750			
0.6713	42963.42	3.6950	3.6950	1.0779	6.00	0.01	0.750			
0.6743	43157.00	3.6920	3.6921	1.0167	5.99	0.00	0.750			
0.6773	43345.67	3.6890	3.6889	0.9699	5.98	-0.01	0.750			
0.6800	43522.76	3.6860	3.6860	0.9272	5.98	-0.01	0.750			
0.6828	43699.02	3.6830	3.6830	0.8917	5.97	-0.02	0.750			
0.6854	43864.31	3.6800	3.6801	0.8699	5.97	-0.02	0.750			
0.6880	44032.76	3.6770	3.6770	0.8487	5.97	-0.02	0.750			
0.6905	44192.19	3.6740	3.6740	0.8205	5.96	-0.03	0.750			
0.6929	44347.60	3.6710	3.6712	0.7928	5.96	-0.03	0.750			
0.6953	44498.44	3.6680	3.6680	0.7643	5.96	-0.03	0.750			
0.6975	44642.88	3.6650	3.6650	0.7337	5.96	-0.03	0.750			
0.6997	44782.31	3.6620	3.6621	0.7028	5.97	-0.02	0.750			
0.7017	44911.45	3.6590	3.6589	0.6670	5.97	-0.02	0.750			
0.7037	45036.65	3.6560	3.6561	0.6379	5.97	-0.02	0.750			
0.7056	45155.70	3.6530	3.6529	0.6047	5.97	-0.02	0.750			
0.7073	45268.56	3.6500	3.6500	0.5754	5.98	-0.01	0.750			
0.7090	45377.06	3.6470	3.6470	0.5458	5.98	-0.01	0.750			
0.7106	45478.44	3.6440	3.6440	0.5138	5.98	-0.01	0.750			
0.7121	45575.28	3.6410	3.6409	0.4841	5.98	-0.01	0.750			
0.7135	45664.81	3.6380	3.6381	0.4506	5.99	-0.00	0.750			
0.7148	45748.80	3.6350	3.6350	0.4179	5.99	-0.00	0.750			
0.7160	45826.54	3.6320	3.6319	0.3843	5.99	-0.00	0.750			
0.7171	45896.78	3.6290	3.6290	0.3470	5.99	0.00	0.750			
0.7181	45960.37	3.6260	3.6260	0.3108	5.99	0.00	0.750			
0.7190	46017.50	3.6230	3.6230	0.2704	5.99	0.00	0.750			
0.7198	46065.98	3.6200	3.6199	0.2310	6.00	0.01	0.750			
0.7204	46106.54	3.6170	3.6169	0.1895	6.00	0.01	0.750			
0.7209	46139.74	3.6140	3.6141	0.1485	6.00	0.01	0.750			
0.7213	46164.39	3.6110	3.6112	0.1050	6.00	0.01	0.750			
0.7216	46180.30	3.6080	3.6076	0.0607	6.00	0.01	0.750			
0.7217	46186.84	3.6020	3.6005	-0.0324	6.00	0.01	0.750			
0.7217	46188.61	3.6050	3.6249	0.0140	6.00	0.01	0.744			
