Ah_balance (normalized)	Ah_balance (mAh)	Voltage - fit (V)	Voltage -  interpolate (V)	dQ/dV (1/V)	Temperature (°C)	Temperature - diff (°C)	Current (C)	R_DC 0ms (mOhm)	R_DC 50ms (mOhm)	R_DC 50 ms PEC (mOhm)
0.1811	11587.38	4.0800	4.0800	0.7838	7.67	1.69	0.750			
0.1834	11740.44	4.0770	4.0767	0.7911	7.67	1.69	0.750			
0.1858	11892.52	4.0740	4.0741	0.7878	7.67	1.69	0.750			
0.1882	12042.68	4.0710	4.0711	0.7866	7.66	1.68	0.750			
0.1905	12193.98	4.0680	4.0679	0.7880	7.66	1.68	0.750			
0.1929	12343.12	4.0650	4.0650	0.7839	7.65	1.67	0.750			
0.1952	12492.78	4.0620	4.0618	0.7902	7.65	1.67	0.750			
0.1976	12647.39	4.0590	4.0590	0.7984	7.65	1.67	0.750			
0.2001	12804.05	4.0560	4.0560	0.7939	7.64	1.66	0.750			
0.2024	12955.48	4.0530	4.0530	0.7960	7.64	1.66	0.750			
0.2048	13107.43	4.0500	4.0501	0.7998	7.64	1.66	0.750			
0.2072	13259.96	4.0470	4.0470	0.8008	7.63	1.65	0.750			
0.2096	13413.35	4.0440	4.0441	0.8072	7.63	1.65	0.750			
0.2120	13569.77	4.0410	4.0410	0.8037	7.62	1.64	0.750			
0.2145	13725.17	4.0380	4.0380	0.8121	7.61	1.63	0.750			
0.2169	13883.70	4.0350	4.0350	0.8201	7.60	1.62	0.750			
0.2194	14038.62	4.0320	4.0320	0.8174	7.59	1.61	0.750			
0.2218	14195.22	4.0290	4.0290	0.8197	7.59	1.61	0.750			
0.2243	14355.60	4.0260	4.0260	0.8131	7.58	1.60	0.750			
0.2267	14510.67	4.0230	4.0230	0.8178	7.58	1.60	0.750			
0.2292	14667.87	4.0200	4.0201	0.8237	7.58	1.60	0.750			
0.2316	14823.36	4.0170	4.0170	0.8293	7.57	1.59	0.750			
0.2341	14983.30	4.0140	4.0140	0.8337	7.57	1.59	0.750			
0.2367	15146.37	4.0110	4.0111	0.8340	7.56	1.58	0.750			
0.2392	15307.84	4.0080	4.0081	0.8437	7.56	1.58	0.750			
0.2417	15471.15	4.0050	4.0050	0.8486	7.56	1.58	0.750			
0.2443	15632.29	4.0020	4.0020	0.8475	7.55	1.57	0.750			
0.2468	15794.49	3.9990	3.9991	0.8494	7.55	1.57	0.750			
0.2494	15959.86	3.9960	3.9960	0.8459	7.54	1.56	0.750			
0.2519	16124.55	3.9930	3.9930	0.8528	7.53	1.55	0.750			
0.2545	16286.54	3.9900	3.9901	0.8585	7.52	1.54	0.750			
0.2570	16449.85	3.9870	3.9871	0.8586	7.51	1.53	0.750			
0.2596	16616.07	3.9840	3.9840	0.8653	7.51	1.53	0.750			
0.2622	16783.29	3.9810	3.9811	0.8631	7.50	1.52	0.750			
0.2648	16949.99	3.9780	3.9781	0.8716	7.50	1.52	0.750			
0.2675	17120.62	3.9750	3.9751	0.8780	7.50	1.52	0.750			
0.2701	17286.50	3.9720	3.9717	0.8741	7.49	1.51	0.750			
0.2727	17454.02	3.9690	3.9691	0.8761	7.48	1.50	0.750			
0.2753	17621.92	3.9660	3.9660	0.8816	7.48	1.50	0.750			
0.2780	17791.61	3.9630	3.9631	0.8895	7.47	1.49	0.750			
0.2807	17964.69	3.9600	3.9599	0.8991	7.46	1.48	0.750			
0.2834	18135.86	3.9570	3.9571	0.8994	7.45	1.47	0.750			
0.2861	18311.61	3.9540	3.9541	0.9011	7.44	1.46	0.750			
0.2888	18483.86	3.9510	3.9510	0.9100	7.43	1.45	0.750			
0.2916	18659.38	3.9480	3.9480	0.9172	7.42	1.44	0.750			
0.2943	18835.08	3.9450	3.9450	0.9146	7.41	1.43	0.750			
0.2970	19010.71	3.9420	3.9420	0.9235	7.41	1.43	0.750			
0.2998	19189.23	3.9390	3.9391	0.9274	7.40	1.42	0.750			
0.3026	19367.52	3.9360	3.9360	0.9393	7.39	1.41	0.750			
0.3055	19548.87	3.9330	3.9330	0.9521	7.38	1.40	0.750			
0.3083	19731.07	3.9300	3.9297	0.9557	7.37	1.39	0.750			
0.3112	19918.27	3.9270	3.9271	0.9561	7.36	1.38	0.750			
0.3141	20102.44	3.9240	3.9240	0.9718	7.35	1.37	0.750			
0.3170	20289.10	3.9210	3.9211	0.9775	7.34	1.36	0.750			
0.3200	20476.83	3.9180	3.9178	0.9787	7.32	1.34	0.750			
0.3229	20665.77	3.9150	3.9151	0.9825	7.31	1.33	0.750			
0.3258	20853.65	3.9120	3.9121	0.9957	7.31	1.33	0.750			
0.3289	21046.97	3.9090	3.9090	1.0079	7.30	1.32	0.750			
0.3319	21240.85	3.9060	3.9060	1.0125	7.29	1.31	0.750			
0.3350	21438.28	3.9030	3.9030	1.0219	7.28	1.30	0.750			
0.3381	21635.81	3.9000	3.9001	1.0361	7.27	1.29	0.750			
0.3412	21835.97	3.8970	3.8970	1.0496	7.26	1.28	0.750			
0.3444	22038.57	3.8940	3.8940	1.0635	7.25	1.27	0.750			
0.3475	22242.91	3.8910	3.8910	1.0655	7.24	1.26	0.750			
0.3508	22449.01	3.8880	3.8880	1.0842	7.23	1.25	0.750			
0.3540	22657.93	3.8850	3.8851	1.0994	7.22	1.24	0.750			
0.3574	22870.75	3.8820	3.8819	1.1209	7.20	1.22	0.750			
0.3607	23087.04	3.8790	3.8790	1.1172	7.19	1.21	0.750			
0.3641	23300.77	3.8760	3.8761	1.1308	7.18	1.20	0.750			
0.3675	23518.42	3.8730	3.8731	1.1465	7.16	1.18	0.750			
0.3710	23741.29	3.8700	3.8695	1.1602	7.15	1.17	0.750			
0.3744	23962.45	3.8670	3.8671	1.1749	7.13	1.15	0.750			
0.3780	24189.84	3.8640	3.8640	1.1904	7.12	1.14	0.750			
0.3816	24423.44	3.8610	3.8610	1.2049	7.10	1.12	0.750			
0.3853	24660.43	3.8580	3.8579	1.2309	7.08	1.10	0.750			
0.3889	24890.22	3.8550	3.8551	1.2344	7.07	1.09	0.750			
0.3926	25128.45	3.8520	3.8520	1.2604	7.05	1.07	0.750			
0.3965	25375.30	3.8490	3.8491	1.2597	7.04	1.06	0.750			
0.4002	25610.93	3.8460	3.8461	1.2894	7.02	1.04	0.750			
0.4040	25858.30	3.8430	3.8432	1.3290	7.01	1.03	0.750			
0.4081	26116.21	3.8400	3.8397	1.3695	6.99	1.01	0.750			
0.4122	26380.95	3.8370	3.8373	1.3966	6.97	0.99	0.750	0.409	0.947	
0.4166	26662.02	3.8340	3.8342	1.4293	6.95	0.97	0.750			
0.4209	26940.59	3.8310	3.8310	1.4582	6.93	0.95	0.750			
0.4255	27229.51	3.8280	3.8277	1.4715	6.91	0.93	0.750			
0.4298	27504.16	3.8250	3.8252	1.4749	6.89	0.91	0.750			
0.4342	27789.51	3.8220	3.8221	1.5209	6.88	0.90	0.750			
0.4389	28087.08	3.8190	3.8189	1.5384	6.86	0.88	0.750			
0.4435	28382.21	3.8160	3.8161	1.5695	6.84	0.86	0.750			
0.4483	28689.41	3.8130	3.8132	1.5891	6.82	0.84	0.750			
0.4531	28996.23	3.8100	3.8099	1.6420	6.79	0.81	0.750			
0.4580	29310.50	3.8070	3.8070	1.6599	6.77	0.79	0.750			
0.4630	29634.40	3.8040	3.8042	1.6828	6.75	0.77	0.750			
0.4682	29967.39	3.8010	3.8013	1.7593	6.74	0.76	0.750			
0.4737	30315.27	3.7980	3.7981	1.8011	6.72	0.74	0.750			
0.4790	30658.41	3.7950	3.7951	1.8297	6.69	0.71	0.750			
0.4846	31012.98	3.7920	3.7920	1.8372	6.66	0.68	0.750			
0.4901	31366.16	3.7890	3.7888	1.8798	6.64	0.66	0.750			
0.4957	31727.28	3.7860	3.7861	1.8941	6.61	0.63	0.750			
0.5015	32098.90	3.7830	3.7829	1.9195	6.58	0.60	0.750			
0.5074	32474.26	3.7800	3.7801	1.9521	6.55	0.57	0.750			
0.5133	32853.95	3.7770	3.7769	1.9944	6.53	0.55	0.750			
0.5192	33226.58	3.7740	3.7740	2.0044	6.50	0.52	0.750			
0.5254	33624.54	3.7710	3.7710	2.0642	6.48	0.50	0.750			
0.5317	34030.08	3.7680	3.7679	2.0770	6.45	0.47	0.750			
0.5380	34431.61	3.7650	3.7650	2.0617	6.43	0.45	0.750			
0.5442	34828.49	3.7620	3.7622	2.0946	6.40	0.42	0.750			
0.5504	35228.47	3.7590	3.7589	2.1195	6.37	0.39	0.750			
0.5568	35632.10	3.7560	3.7562	2.1478	6.35	0.37	0.750			
0.5635	36065.20	3.7530	3.7529	2.2191	6.32	0.34	0.750			
0.5702	36490.04	3.7500	3.7501	2.2381	6.29	0.31	0.750			
0.5771	36931.30	3.7470	3.7469	2.2828	6.26	0.28	0.750			
0.5838	37366.17	3.7440	3.7440	2.3309	6.23	0.25	0.750			
0.5909	37816.50	3.7410	3.7410	2.4290	6.21	0.23	0.750			
0.5983	38290.07	3.7380	3.7380	2.4826	6.18	0.20	0.750			
0.6059	38778.93	3.7350	3.7351	2.5220	6.16	0.18	0.750			
0.6135	39266.64	3.7320	3.7320	2.5713	6.13	0.15	0.750			
0.6212	39756.90	3.7290	3.7289	2.6382	6.11	0.13	0.750			
0.6294	40279.50	3.7260	3.7259	2.6904	6.08	0.10	0.750			
0.6376	40808.09	3.7230	3.7229	2.6468	6.06	0.08	0.750			
0.6453	41299.02	3.7200	3.7201	2.5211	6.05	0.07	0.750			
0.6527	41769.90	3.7170	3.7170	2.3608	6.03	0.05	0.750			
0.6594	42204.08	3.7140	3.7141	2.1981	6.02	0.04	0.750			
0.6660	42623.26	3.7110	3.7109	2.0447	6.00	0.02	0.750			
0.6719	42999.89	3.7080	3.7078	1.8407	5.99	0.01	0.750			
0.6769	43320.85	3.7050	3.7052	1.6037	5.99	0.01	0.750			
0.6814	43608.48	3.7020	3.7021	1.4373	5.99	0.01	0.750			
0.6854	43866.41	3.6990	3.6990	1.2699	5.99	0.01	0.750			
0.6888	44082.01	3.6960	3.6960	1.1264	5.98	0.00	0.750			
0.6919	44284.13	3.6930	3.6930	1.0394	5.98	-0.00	0.750			
0.6949	44472.47	3.6900	3.6900	0.9654	5.97	-0.01	0.750			
0.6976	44644.91	3.6870	3.6870	0.9090	5.97	-0.01	0.750			
0.7002	44812.18	3.6840	3.6840	0.8593	5.97	-0.01	0.750			
0.7027	44971.58	3.6810	3.6809	0.8239	5.97	-0.01	0.750			
0.7051	45128.24	3.6780	3.6780	0.7929	5.97	-0.01	0.750			
0.7074	45276.41	3.6750	3.6750	0.7536	5.97	-0.01	0.750			
0.7097	45418.31	3.6720	3.6720	0.7133	5.97	-0.01	0.750			
0.7117	45551.52	3.6690	3.6690	0.6762	5.97	-0.01	0.750			
0.7137	45677.62	3.6660	3.6660	0.6372	5.97	-0.01	0.750			
0.7156	45798.19	3.6630	3.6629	0.5930	5.98	-0.00	0.750			
0.7173	45906.91	3.6600	3.6600	0.5529	5.98	-0.00	0.750			
0.7189	46009.26	3.6570	3.6572	0.5123	5.98	-0.00	0.750			
0.7204	46104.90	3.6540	3.6537	0.4669	5.98	-0.00	0.750			
0.7217	46190.25	3.6510	3.6510	0.4202	5.98	0.00	0.750			
0.7229	46265.16	3.6480	3.6482	0.3739	5.98	0.00	0.750			
0.7239	46332.63	3.6450	3.6451	0.3357	5.98	0.00	0.750			
0.7249	46392.20	3.6420	3.6413	0.3041	5.98	0.00	0.750			
0.7257	46443.33	3.6390	3.6389	0.2682	5.98	0.00	0.750			
0.7265	46494.53	3.6360	3.6358	0.2370	5.98	0.00	0.750			
0.7272	46538.17	3.6330	3.6330	0.2103	5.99	0.01	0.750			
0.7278	46578.06	3.6300	3.6301	0.1824	5.99	0.01	0.750			
0.7283	46611.84	3.6270	3.6271	0.1491	5.99	0.01	0.750			
0.7287	46638.30	3.6240	3.6242	0.1104	5.99	0.01	0.750			
0.7290	46655.47	3.6210	3.6216	0.0685	5.99	0.01	0.750			
0.7291	46664.60	3.6180	3.6192	0.0247	5.99	0.01	0.750			
