Ah_balance (normalized)	Ah_balance (mAh)	Voltage - fit (V)	Voltage -  interpolate (V)	dQ/dV (1/V)	Temperature (°C)	Temperature - diff (°C)	Current (C)	R_DC 0ms (mOhm)	R_DC 50ms (mOhm)	R_DC 50 ms PEC (mOhm)
0.0968	6192.36	4.0050	4.0056	-0.0832	5.99	0.00	-0.750			
0.0970	6210.73	4.0020	4.0019	-0.1091	5.99	-0.00	-0.750			
0.0974	6235.11	3.9990	3.9989	-0.1361	5.99	-0.00	-0.750			
0.0979	6263.63	3.9960	3.9959	-0.1601	5.99	-0.00	-0.750			
0.0984	6296.72	3.9930	3.9930	-0.1840	5.99	-0.00	-0.750			
0.0990	6334.29	3.9900	3.9901	-0.2080	5.99	-0.00	-0.750			
0.0996	6376.64	3.9870	3.9869	-0.2327	5.99	-0.00	-0.750			
0.1004	6423.29	3.9840	3.9840	-0.2567	5.98	-0.01	-0.750			
0.1012	6475.33	3.9810	3.9810	-0.2794	5.98	-0.01	-0.750			
0.1020	6531.00	3.9780	3.9780	-0.3042	5.98	-0.01	-0.750			
0.1030	6592.07	3.9750	3.9750	-0.3287	5.98	-0.01	-0.750			
0.1040	6657.35	3.9720	3.9720	-0.3529	5.98	-0.01	-0.750			
0.1051	6727.34	3.9690	3.9690	-0.3788	5.98	-0.01	-0.750			
0.1063	6802.09	3.9660	3.9660	-0.4042	5.97	-0.02	-0.750			
0.1075	6882.83	3.9630	3.9630	-0.4280	5.97	-0.02	-0.750			
0.1089	6967.75	3.9600	3.9601	-0.4541	5.97	-0.02	-0.750			
0.1103	7057.13	3.9570	3.9570	-0.4759	5.97	-0.02	-0.750			
0.1117	7151.94	3.9540	3.9540	-0.4967	5.97	-0.02	-0.750			
0.1133	7249.03	3.9510	3.9509	-0.5172	5.97	-0.02	-0.750			
0.1148	7350.26	3.9480	3.9481	-0.5344	5.97	-0.02	-0.750			
0.1165	7454.64	3.9450	3.9450	-0.5567	5.96	-0.03	-0.750			
0.1182	7564.70	3.9420	3.9419	-0.5731	5.96	-0.03	-0.750			
0.1199	7675.79	3.9390	3.9390	-0.5900	5.96	-0.03	-0.750			
0.1217	7791.45	3.9360	3.9361	-0.6066	5.96	-0.03	-0.750			
0.1236	7910.16	3.9330	3.9330	-0.6238	5.96	-0.03	-0.750			
0.1255	8030.96	3.9300	3.9299	-0.6346	5.96	-0.03	-0.750			
0.1274	8153.45	3.9270	3.9270	-0.6517	5.96	-0.03	-0.750			
0.1294	8281.46	3.9240	3.9240	-0.6615	5.95	-0.04	-0.750			
0.1314	8410.73	3.9210	3.9209	-0.6717	5.95	-0.04	-0.750			
0.1334	8540.15	3.9180	3.9180	-0.6756	5.95	-0.04	-0.750			
0.1355	8671.35	3.9150	3.9150	-0.6794	5.95	-0.04	-0.750			
0.1375	8800.67	3.9120	3.9120	-0.6856	5.95	-0.04	-0.750			
0.1396	8932.38	3.9090	3.9089	-0.6935	5.95	-0.04	-0.750			
0.1416	9063.96	3.9060	3.9061	-0.7019	5.95	-0.04	-0.750			
0.1438	9202.03	3.9030	3.9029	-0.7115	5.95	-0.04	-0.750			
0.1459	9340.76	3.9000	3.9000	-0.7174	5.95	-0.04	-0.750			
0.1481	9479.87	3.8970	3.8970	-0.7233	5.95	-0.04	-0.750			
0.1503	9619.68	3.8940	3.8940	-0.7289	5.96	-0.03	-0.750			
0.1525	9759.67	3.8910	3.8910	-0.7286	5.96	-0.03	-0.750			
0.1547	9899.20	3.8880	3.8879	-0.7305	5.96	-0.03	-0.750			
0.1569	10038.97	3.8850	3.8851	-0.7364	5.97	-0.02	-0.750			
0.1591	10181.88	3.8820	3.8820	-0.7412	5.97	-0.02	-0.750			
0.1613	10323.45	3.8790	3.8789	-0.7430	5.97	-0.02	-0.750			
0.1635	10466.90	3.8760	3.8760	-0.7431	5.98	-0.01	-0.750			
0.1658	10610.65	3.8730	3.8730	-0.7474	5.98	-0.01	-0.750			
0.1680	10754.87	3.8700	3.8699	-0.7502	5.98	-0.01	-0.750			
0.1703	10899.34	3.8670	3.8670	-0.7507	5.99	-0.00	-0.750			
0.1725	11043.13	3.8640	3.8640	-0.7516	5.99	0.00	-0.750			
0.1748	11188.27	3.8610	3.8610	-0.7554	5.99	0.00	-0.750			
0.1771	11333.05	3.8580	3.8580	-0.7607	6.00	0.01	-0.750			
0.1794	11479.30	3.8550	3.8549	-0.7585	6.00	0.01	-0.750			
0.1817	11627.46	3.8520	3.8520	-0.7632	6.01	0.02	-0.750			
0.1840	11773.34	3.8490	3.8491	-0.7619	6.01	0.02	-0.750			
0.1862	11919.71	3.8460	3.8459	-0.7604	6.01	0.02	-0.750			
0.1885	12064.22	3.8430	3.8430	-0.7608	6.02	0.03	-0.750			
0.1908	12210.16	3.8400	3.8400	-0.7612	6.02	0.03	-0.750			
0.1931	12355.54	3.8370	3.8370	-0.7621	6.02	0.03	-0.750			
0.1954	12505.08	3.8340	3.8340	-0.7695	6.03	0.04	-0.750			
0.1977	12652.31	3.8310	3.8311	-0.7699	6.03	0.04	-0.750			
0.2000	12799.19	3.8280	3.8279	-0.7730	6.04	0.05	-0.750			
0.2023	12948.59	3.8250	3.8250	-0.7752	6.05	0.06	-0.750			
0.2046	13096.96	3.8220	3.8220	-0.7738	6.06	0.07	-0.750			
0.2070	13246.87	3.8190	3.8189	-0.7752	6.06	0.07	-0.750			
0.2093	13396.36	3.8160	3.8164	-0.7747	6.07	0.08	-0.750			
0.2116	13544.86	3.8130	3.8130	-0.7730	6.07	0.08	-0.750			
0.2140	13693.01	3.8100	3.8100	-0.7727	6.08	0.09	-0.750			
0.2163	13840.82	3.8070	3.8070	-0.7728	6.08	0.09	-0.750			
0.2186	13987.99	3.8040	3.8040	-0.7750	6.08	0.09	-0.750			
0.2209	14137.37	3.8010	3.8008	-0.7748	6.09	0.10	-0.750			
0.2232	14286.95	3.7980	3.7980	-0.7773	6.09	0.10	-0.750			
0.2256	14436.18	3.7950	3.7950	-0.7772	6.10	0.11	-0.750			
0.2279	14585.94	3.7920	3.7921	-0.7763	6.11	0.12	-0.750			
0.2302	14733.30	3.7890	3.7890	-0.7693	6.12	0.13	-0.750			
0.2325	14881.60	3.7860	3.7860	-0.7724	6.12	0.13	-0.750			
0.2348	15029.46	3.7830	3.7831	-0.7747	6.13	0.14	-0.750			
0.2372	15178.32	3.7800	3.7798	-0.7788	6.13	0.14	-0.750			
0.2395	15327.55	3.7770	3.7771	-0.7824	6.14	0.15	-0.750			
0.2419	15479.11	3.7740	3.7740	-0.7838	6.14	0.15	-0.750			
0.2442	15630.92	3.7710	3.7710	-0.7893	6.15	0.16	-0.750			
0.2466	15783.51	3.7680	3.7679	-0.7885	6.15	0.16	-0.750			
0.2490	15934.19	3.7650	3.7649	-0.7857	6.16	0.17	-0.750			
0.2513	16084.69	3.7620	3.7620	-0.7882	6.16	0.17	-0.750			
0.2537	16234.83	3.7590	3.7590	-0.7894	6.17	0.18	-0.750			
0.2561	16387.43	3.7560	3.7560	-0.7910	6.18	0.19	-0.750			
0.2584	16539.37	3.7530	3.7529	-0.7945	6.19	0.20	-0.750			
0.2608	16690.80	3.7500	3.7500	-0.7964	6.19	0.20	-0.750			
0.2632	16844.60	3.7470	3.7470	-0.8026	6.20	0.21	-0.750			
0.2656	16999.18	3.7440	3.7439	-0.8054	6.20	0.21	-0.750			
0.2680	17153.41	3.7410	3.7410	-0.8064	6.20	0.21	-0.750			
0.2705	17309.70	3.7380	3.7381	-0.8110	6.21	0.22	-0.750			
0.2729	17466.39	3.7350	3.7350	-0.8151	6.21	0.22	-0.750			
0.2753	17621.75	3.7320	3.7320	-0.8190	6.22	0.23	-0.750			
0.2778	17780.99	3.7290	3.7290	-0.8204	6.22	0.23	-0.750			
0.2803	17938.43	3.7260	3.7260	-0.8215	6.22	0.23	-0.750			
0.2828	18096.02	3.7230	3.7230	-0.8254	6.23	0.24	-0.750			
0.2852	18254.85	3.7200	3.7201	-0.8296	6.23	0.24	-0.750			
0.2877	18412.94	3.7170	3.7169	-0.8374	6.24	0.25	-0.750			
0.2902	18573.43	3.7140	3.7140	-0.8432	6.24	0.25	-0.750			
0.2927	18735.34	3.7110	3.7110	-0.8542	6.25	0.26	-0.750			
0.2953	18902.03	3.7080	3.7079	-0.8693	6.26	0.27	-0.750			
0.2980	19071.25	3.7050	3.7050	-0.8787	6.26	0.27	-0.750			
0.3006	19240.97	3.7020	3.7019	-0.8886	6.27	0.28	-0.750			
0.3033	19412.77	3.6990	3.6990	-0.8958	6.28	0.29	-0.750			
0.3060	19584.55	3.6960	3.6960	-0.8963	6.28	0.29	-0.750			
0.3087	19758.97	3.6930	3.6929	-0.9080	6.29	0.30	-0.750			
0.3114	19931.19	3.6900	3.6900	-0.9186	6.29	0.30	-0.750			
0.3142	20109.89	3.6870	3.6869	-0.9239	6.30	0.31	-0.750			
0.3170	20288.99	3.6840	3.6840	-0.9320	6.30	0.31	-0.750			
0.3198	20468.71	3.6810	3.6809	-0.9349	6.31	0.32	-0.750			
0.3227	20650.27	3.6780	3.6781	-0.9433	6.31	0.32	-0.750			
0.3255	20831.46	3.6750	3.6750	-0.9556	6.32	0.33	-0.750			
0.3283	21014.14	3.6720	3.6720	-0.9598	6.32	0.33	-0.750			
0.3312	21197.17	3.6690	3.6689	-0.9669	6.33	0.34	-0.750			
0.3342	21386.90	3.6660	3.6663	-0.9865	6.33	0.34	-0.750			
0.3371	21576.95	3.6630	3.6629	-0.9985	6.33	0.34	-0.750			
0.3402	21770.17	3.6600	3.6600	-1.0101	6.34	0.35	-0.750			
0.3432	21964.62	3.6570	3.6570	-1.0154	6.34	0.35	-0.750			
0.3463	22162.04	3.6540	3.6540	-1.0302	6.35	0.36	-0.750			
0.3494	22360.47	3.6510	3.6510	-1.0433	6.35	0.36	-0.750			
0.3525	22560.86	3.6480	3.6480	-1.0513	6.36	0.37	-0.750			
0.3557	22766.96	3.6450	3.6449	-1.0433	6.36	0.37	-0.750			
0.3589	22967.43	3.6420	3.6421	-1.0396	6.37	0.38	-0.750			
0.3620	23165.81	3.6390	3.6391	-1.0585	6.37	0.38	-0.750			
0.3651	23368.59	3.6360	3.6357	-1.0694	6.37	0.38	-0.750			
0.3683	23572.08	3.6330	3.6328	-1.0749	6.37	0.38	-0.750			
0.3715	23777.87	3.6300	3.6304	-1.0973	6.37	0.38	-0.750			
0.3749	23992.79	3.6270	3.6270	-1.1245	6.37	0.38	-0.750			
0.3784	24214.73	3.6240	3.6239	-1.1464	6.38	0.39	-0.750			
0.3818	24434.09	3.6210	3.6209	-1.1564	6.39	0.40	-0.750			
0.3853	24657.98	3.6180	3.6181	-1.1770	6.39	0.40	-0.750			
0.3889	24886.75	3.6150	3.6151	-1.1867	6.39	0.40	-0.750			
0.3925	25118.16	3.6120	3.6119	-1.1942	6.40	0.41	-0.750			
0.3960	25344.22	3.6090	3.6089	-1.1983	6.40	0.41	-0.750			
0.3996	25575.95	3.6060	3.6061	-1.2129	6.40	0.41	-0.750			
0.4033	25810.74	3.6030	3.6029	-1.2240	6.41	0.42	-0.750			
0.4070	26046.15	3.6000	3.5999	-1.2347	6.41	0.42	-0.750			
0.4107	26283.66	3.5970	3.5971	-1.2427	6.41	0.42	-0.750			
0.4145	26525.98	3.5940	3.5943	-1.2598	6.41	0.42	-0.750	0.472	1.107	
0.4183	26768.13	3.5910	3.5909	-1.2689	6.41	0.42	-0.750			
0.4220	27009.92	3.5880	3.5883	-1.2731	6.41	0.42	-0.750			
0.4259	27255.89	3.5850	3.5849	-1.2897	6.42	0.43	-0.750			
0.4298	27507.00	3.5820	3.5820	-1.3115	6.42	0.43	-0.750			
0.4337	27757.93	3.5790	3.5790	-1.3294	6.43	0.44	-0.750			
0.4378	28017.50	3.5760	3.5759	-1.3404	6.43	0.44	-0.750			
0.4418	28276.63	3.5730	3.5729	-1.3462	6.43	0.44	-0.750			
0.4459	28534.53	3.5700	3.5702	-1.3679	6.43	0.44	-0.750			
0.4500	28799.86	3.5670	3.5669	-1.3780	6.43	0.44	-0.750			
0.4541	29062.44	3.5640	3.5638	-1.4080	6.43	0.44	-0.750			
0.4584	29335.87	3.5610	3.5611	-1.4327	6.43	0.44	-0.750			
0.4627	29613.59	3.5580	3.5578	-1.4467	6.44	0.45	-0.750			
0.4672	29898.83	3.5550	3.5553	-1.4921	6.44	0.45	-0.750			
0.4717	30187.49	3.5520	3.5522	-1.5134	6.45	0.46	-0.750			
0.4762	30479.02	3.5490	3.5488	-1.5157	6.45	0.46	-0.750			
0.4809	30778.41	3.5460	3.5458	-1.5202	6.45	0.46	-0.750			
0.4854	31068.72	3.5430	3.5430	-1.5342	6.45	0.46	-0.750			
0.4901	31365.47	3.5400	3.5401	-1.5530	6.46	0.47	-0.750			
0.4947	31662.00	3.5370	3.5369	-1.5567	6.47	0.48	-0.750			
0.4993	31956.21	3.5340	3.5341	-1.5639	6.47	0.48	-0.750			
0.5042	32266.69	3.5310	3.5310	-1.5794	6.48	0.49	-0.750			
0.5089	32570.96	3.5280	3.5280	-1.5997	6.49	0.50	-0.750			
0.5137	32878.90	3.5250	3.5250	-1.5970	6.49	0.50	-0.750			
0.5184	33180.34	3.5220	3.5219	-1.6033	6.50	0.51	-0.750			
0.5233	33491.61	3.5190	3.5190	-1.6140	6.50	0.51	-0.750			
0.5281	33797.79	3.5160	3.5161	-1.6339	6.51	0.52	-0.750			
0.5331	34116.10	3.5130	3.5130	-1.6386	6.51	0.52	-0.750			
0.5381	34437.42	3.5100	3.5099	-1.6439	6.52	0.53	-0.750			
0.5431	34755.60	3.5070	3.5068	-1.6549	6.52	0.53	-0.750			
0.5481	35078.17	3.5040	3.5039	-1.6409	6.53	0.54	-0.750			
0.5530	35389.03	3.5010	3.5011	-1.6381	6.54	0.55	-0.750			
0.5578	35698.88	3.4980	3.4981	-1.6139	6.55	0.56	-0.750			
0.5627	36010.81	3.4950	3.4949	-1.6174	6.56	0.57	-0.750			
0.5675	36321.78	3.4920	3.4921	-1.6340	6.56	0.57	-0.750			
0.5724	36635.33	3.4890	3.4890	-1.6243	6.57	0.58	-0.750			
0.5773	36944.74	3.4860	3.4862	-1.6170	6.58	0.59	-0.750			
0.5822	37258.74	3.4830	3.4830	-1.6112	6.59	0.60	-0.750			
0.5869	37562.73	3.4800	3.4798	-1.6019	6.59	0.60	-0.750			
0.5917	37871.17	3.4770	3.4769	-1.5997	6.60	0.61	-0.750			
0.5965	38178.88	3.4740	3.4740	-1.5863	6.61	0.62	-0.750			
0.6012	38479.38	3.4710	3.4710	-1.5670	6.62	0.63	-0.750			
0.6060	38781.70	3.4680	3.4679	-1.5498	6.64	0.65	-0.750			
0.6106	39076.08	3.4650	3.4650	-1.5393	6.65	0.66	-0.750			
0.6152	39370.19	3.4620	3.4617	-1.5183	6.66	0.67	-0.750			
0.6196	39657.11	3.4590	3.4588	-1.5047	6.67	0.68	-0.750			
0.6241	39944.71	3.4560	3.4558	-1.4919	6.68	0.69	-0.750			
0.6287	40237.58	3.4530	3.4530	-1.4790	6.69	0.70	-0.750			
0.6331	40516.50	3.4500	3.4500	-1.4499	6.71	0.72	-0.750			
0.6374	40794.32	3.4470	3.4470	-1.4307	6.72	0.73	-0.750			
0.6417	41066.71	3.4440	3.4440	-1.3998	6.74	0.75	-0.750			
0.6459	41337.03	3.4410	3.4410	-1.3958	6.76	0.77	-0.750			
0.6500	41601.14	3.4380	3.4380	-1.3634	6.77	0.78	-0.750			
0.6541	41865.51	3.4350	3.4349	-1.3441	6.79	0.80	-0.750			
0.6581	42121.46	3.4320	3.4321	-1.3204	6.81	0.82	-0.750			
0.6621	42371.43	3.4290	3.4289	-1.2822	6.82	0.83	-0.750			
0.6659	42616.47	3.4260	3.4260	-1.2495	6.83	0.84	-0.750			
0.6696	42851.32	3.4230	3.4230	-1.2258	6.84	0.85	-0.750			
0.6731	43078.18	3.4200	3.4201	-1.1978	6.85	0.86	-0.750			
0.6768	43312.42	3.4170	3.4169	-1.1807	6.87	0.88	-0.750			
0.6803	43536.59	3.4140	3.4139	-1.1476	6.88	0.89	-0.750			
0.6837	43755.50	3.4110	3.4111	-1.1163	6.89	0.90	-0.750			
0.6870	43969.19	3.4080	3.4081	-1.0926	6.90	0.91	-0.750			
0.6903	44176.12	3.4050	3.4049	-1.0611	6.92	0.93	-0.750			
0.6933	44373.78	3.4020	3.4019	-1.0273	6.93	0.94	-0.750			
0.6964	44567.01	3.3990	3.3989	-0.9966	6.95	0.96	-0.750			
0.6993	44753.93	3.3960	3.3960	-0.9927	6.96	0.97	-0.750			
0.7022	44942.22	3.3930	3.3929	-0.9790	6.98	0.99	-0.750			
0.7051	45129.44	3.3900	3.3899	-0.9642	6.99	1.00	-0.750			
0.7081	45315.79	3.3870	3.3868	-0.9518	7.00	1.01	-0.750			
0.7109	45498.76	3.3840	3.3842	-0.9237	7.02	1.03	-0.750			
0.7137	45677.35	3.3810	3.3811	-0.8963	7.03	1.04	-0.750			
0.7163	45846.09	3.3780	3.3780	-0.8583	7.04	1.05	-0.750			
0.7188	46002.06	3.3750	3.3750	-0.8140	7.06	1.07	-0.750			
0.7212	46155.89	3.3720	3.3719	-0.7877	7.07	1.08	-0.750			
0.7235	46303.34	3.3690	3.3690	-0.7608	7.08	1.09	-0.750			
0.7258	46448.22	3.3660	3.3660	-0.7385	7.09	1.10	-0.750			
0.7279	46588.40	3.3630	3.3630	-0.7089	7.10	1.11	-0.750			
0.7300	46722.51	3.3600	3.3600	-0.7013	7.11	1.12	-0.750			
