Ah_balance (normalized)	Ah_balance (mAh)	Voltage - fit (V)	Voltage -  interpolate (V)	dQ/dV (1/V)	Temperature (°C)	Temperature - diff (°C)	Current (C)	R_DC 0ms (mOhm)	R_DC 50ms (mOhm)	R_DC 50 ms PEC (mOhm)
0.1759	11256.92	4.0820	4.0820	0.7352	7.66	1.69	0.750			
0.1782	11403.30	4.0790	4.0789	0.7622	7.66	1.69	0.750			
0.1804	11547.44	4.0760	4.0760	0.7705	7.65	1.68	0.750			
0.1828	11696.59	4.0730	4.0731	0.7868	7.64	1.67	0.750			
0.1852	11851.34	4.0700	4.0699	0.7936	7.63	1.66	0.750			
0.1876	12007.37	4.0670	4.0671	0.7991	7.63	1.66	0.750			
0.1900	12161.94	4.0640	4.0640	0.7904	7.62	1.65	0.750			
0.1924	12314.88	4.0610	4.0612	0.7901	7.61	1.64	0.750			
0.1948	12465.50	4.0580	4.0579	0.7877	7.60	1.63	0.750			
0.1971	12612.04	4.0550	4.0550	0.7804	7.60	1.63	0.750			
0.1994	12760.28	4.0520	4.0519	0.7815	7.59	1.62	0.750			
0.2017	12911.38	4.0490	4.0491	0.7913	7.58	1.61	0.750			
0.2042	13066.56	4.0460	4.0460	0.7934	7.57	1.60	0.750			
0.2065	13218.58	4.0430	4.0430	0.7986	7.57	1.60	0.750			
0.2089	13370.96	4.0400	4.0401	0.7997	7.56	1.59	0.750			
0.2113	13525.64	4.0370	4.0367	0.8050	7.55	1.58	0.750			
0.2138	13680.59	4.0340	4.0341	0.8072	7.54	1.57	0.750			
0.2162	13836.07	4.0310	4.0310	0.8122	7.54	1.57	0.750			
0.2186	13992.61	4.0280	4.0281	0.8198	7.53	1.56	0.750			
0.2211	14149.72	4.0250	4.0250	0.8216	7.52	1.55	0.750			
0.2236	14309.11	4.0220	4.0219	0.8274	7.51	1.54	0.750			
0.2261	14469.27	4.0190	4.0191	0.8321	7.50	1.53	0.750			
0.2286	14630.31	4.0160	4.0160	0.8317	7.49	1.52	0.750			
0.2311	14790.08	4.0130	4.0131	0.8363	7.48	1.51	0.750			
0.2336	14949.14	4.0100	4.0100	0.8334	7.46	1.49	0.750			
0.2361	15109.28	4.0070	4.0068	0.8365	7.45	1.48	0.750			
0.2386	15269.67	4.0040	4.0041	0.8397	7.44	1.47	0.750			
0.2411	15431.38	4.0010	4.0011	0.8444	7.44	1.47	0.750			
0.2437	15595.40	3.9980	3.9980	0.8522	7.43	1.46	0.750			
0.2462	15758.14	3.9950	3.9950	0.8519	7.42	1.45	0.750			
0.2488	15923.18	3.9920	3.9916	0.8611	7.41	1.44	0.750			
0.2514	16091.07	3.9890	3.9890	0.8621	7.40	1.43	0.750			
0.2540	16256.63	3.9860	3.9860	0.8653	7.39	1.42	0.750			
0.2566	16423.06	3.9830	3.9830	0.8690	7.37	1.40	0.750			
0.2592	16589.44	3.9800	3.9800	0.8747	7.36	1.39	0.750			
0.2618	16756.31	3.9770	3.9769	0.8754	7.35	1.38	0.750			
0.2645	16926.36	3.9740	3.9740	0.8741	7.34	1.37	0.750			
0.2671	17094.79	3.9710	3.9711	0.8808	7.33	1.36	0.750			
0.2698	17265.49	3.9680	3.9680	0.8836	7.32	1.35	0.750			
0.2724	17434.08	3.9650	3.9651	0.8825	7.32	1.35	0.750			
0.2750	17601.47	3.9620	3.9621	0.8921	7.31	1.34	0.750			
0.2777	17775.03	3.9590	3.9590	0.8896	7.30	1.33	0.750			
0.2804	17946.27	3.9560	3.9559	0.9037	7.29	1.32	0.750			
0.2831	18120.86	3.9530	3.9531	0.9105	7.28	1.31	0.750			
0.2859	18295.23	3.9500	3.9499	0.9156	7.27	1.30	0.750			
0.2887	18475.25	3.9470	3.9471	0.9172	7.26	1.29	0.750			
0.2914	18650.58	3.9440	3.9440	0.9250	7.25	1.28	0.750			
0.2942	18827.93	3.9410	3.9411	0.9300	7.25	1.28	0.750			
0.2970	19009.25	3.9380	3.9381	0.9451	7.24	1.27	0.750			
0.2998	19188.48	3.9350	3.9349	0.9447	7.23	1.26	0.750			
0.3027	19371.68	3.9320	3.9321	0.9497	7.22	1.25	0.750			
0.3055	19553.62	3.9290	3.9292	0.9608	7.21	1.24	0.750			
0.3084	19740.68	3.9260	3.9260	0.9679	7.20	1.23	0.750			
0.3114	19927.46	3.9230	3.9228	0.9676	7.19	1.22	0.750			
0.3143	20115.95	3.9200	3.9201	0.9622	7.18	1.21	0.750			
0.3172	20297.96	3.9170	3.9171	0.9745	7.17	1.20	0.750			
0.3201	20485.96	3.9140	3.9140	0.9853	7.16	1.19	0.750			
0.3230	20673.33	3.9110	3.9109	0.9942	7.15	1.18	0.750			
0.3260	20865.31	3.9080	3.9081	1.0039	7.14	1.17	0.750			
0.3291	21061.59	3.9050	3.9050	1.0248	7.13	1.16	0.750			
0.3322	21260.84	3.9020	3.9021	1.0366	7.12	1.15	0.750			
0.3353	21462.05	3.8990	3.8989	1.0423	7.11	1.14	0.750			
0.3385	21665.09	3.8960	3.8960	1.0408	7.10	1.13	0.750			
0.3416	21865.16	3.8930	3.8930	1.0554	7.09	1.12	0.750			
0.3448	22067.01	3.8900	3.8901	1.0713	7.08	1.11	0.750			
0.3480	22274.28	3.8870	3.8868	1.0882	7.07	1.10	0.750			
0.3513	22483.23	3.8840	3.8840	1.0922	7.06	1.09	0.750			
0.3546	22694.57	3.8810	3.8812	1.1110	7.05	1.08	0.750			
0.3580	22909.45	3.8780	3.8780	1.1258	7.04	1.07	0.750			
0.3614	23131.94	3.8750	3.8746	1.1382	7.03	1.06	0.750			
0.3648	23346.28	3.8720	3.8721	1.1446	7.02	1.05	0.750			
0.3682	23566.08	3.8690	3.8691	1.1647	7.00	1.03	0.750			
0.3718	23792.75	3.8660	3.8661	1.1854	6.99	1.02	0.750			
0.3753	24021.69	3.8630	3.8630	1.1913	6.97	1.00	0.750			
0.3789	24251.94	3.8600	3.8601	1.2116	6.96	0.99	0.750			
0.3826	24487.80	3.8570	3.8571	1.2344	6.95	0.98	0.750			
0.3864	24730.08	3.8540	3.8535	1.2357	6.93	0.96	0.750			
0.3901	24968.56	3.8510	3.8510	1.2427	6.92	0.95	0.750			
0.3938	25202.06	3.8480	3.8483	1.2744	6.91	0.94	0.750			
0.3976	25447.42	3.8450	3.8450	1.3049	6.89	0.92	0.750			
0.4016	25700.22	3.8420	3.8421	1.3504	6.88	0.91	0.750			
0.4056	25959.89	3.8390	3.8392	1.3804	6.86	0.89	0.750	0.383	0.875	
0.4099	26233.50	3.8360	3.8362	1.4038	6.85	0.88	0.750			
0.4143	26514.85	3.8330	3.8331	1.4498	6.83	0.86	0.750			
0.4187	26796.83	3.8300	3.8300	1.4734	6.81	0.84	0.750			
0.4231	27078.03	3.8270	3.8267	1.4711	6.79	0.82	0.750			
0.4275	27361.41	3.8240	3.8241	1.4901	6.78	0.81	0.750			
0.4320	27648.34	3.8210	3.8211	1.5225	6.76	0.79	0.750			
0.4366	27941.91	3.8180	3.8178	1.5457	6.75	0.78	0.750			
0.4413	28240.65	3.8150	3.8150	1.5533	6.72	0.75	0.750			
0.4460	28543.25	3.8120	3.8122	1.5898	6.70	0.73	0.750			
0.4508	28849.24	3.8090	3.8090	1.6353	6.67	0.70	0.750			
0.4557	29166.20	3.8060	3.8058	1.6725	6.65	0.68	0.750			
0.4609	29495.81	3.8030	3.8028	1.6877	6.63	0.66	0.750			
0.4660	29824.32	3.8000	3.8001	1.7143	6.62	0.65	0.750			
0.4712	30159.63	3.7970	3.7971	1.7571	6.60	0.63	0.750			
0.4765	30498.94	3.7940	3.7938	1.7849	6.58	0.61	0.750			
0.4819	30844.51	3.7910	3.7911	1.8137	6.55	0.58	0.750			
0.4874	31195.19	3.7880	3.7877	1.8201	6.53	0.56	0.750			
0.4930	31554.13	3.7850	3.7848	1.8560	6.51	0.54	0.750			
0.4984	31898.19	3.7820	3.7820	1.8552	6.49	0.52	0.750			
0.5041	32264.73	3.7790	3.7791	1.8862	6.47	0.50	0.750			
0.5098	32626.39	3.7760	3.7762	1.9056	6.46	0.49	0.750			
0.5156	32995.43	3.7730	3.7732	1.9058	6.43	0.46	0.750			
0.5213	33366.31	3.7700	3.7700	1.9336	6.41	0.44	0.750			
0.5271	33735.89	3.7670	3.7667	1.9317	6.39	0.42	0.750			
0.5328	34098.50	3.7640	3.7642	2.0888	6.36	0.39	0.750			
0.5392	34509.78	3.7610	3.7610	2.1804	6.34	0.37	0.750			
0.5460	34944.77	3.7580	3.7584	2.2339	6.32	0.35	0.750			
0.5530	35394.54	3.7550	3.7549	2.2194	6.30	0.33	0.750			
0.5596	35812.42	3.7520	3.7519	2.1649	6.28	0.31	0.750			
0.5658	36211.13	3.7490	3.7488	2.1328	6.25	0.28	0.750			
0.5723	36624.64	3.7460	3.7460	2.1719	6.22	0.25	0.750			
0.5789	37052.12	3.7430	3.7430	2.2561	6.19	0.22	0.750			
0.5856	37480.74	3.7400	3.7400	2.2968	6.17	0.20	0.750			
0.5926	37928.93	3.7370	3.7369	2.3399	6.14	0.17	0.750			
0.5999	38393.15	3.7340	3.7341	2.4189	6.11	0.14	0.750			
0.6073	38866.80	3.7310	3.7309	2.4332	6.10	0.13	0.750			
0.6146	39337.25	3.7280	3.7281	2.4135	6.08	0.11	0.750			
0.6219	39804.39	3.7250	3.7250	2.4340	6.06	0.09	0.750			
0.6291	40261.55	3.7220	3.7219	2.3282	6.05	0.08	0.750			
0.6362	40715.57	3.7190	3.7192	2.1993	6.03	0.06	0.750			
0.6426	41125.61	3.7160	3.7159	2.0514	6.02	0.05	0.750			
0.6486	41511.91	3.7130	3.7128	1.8654	6.01	0.04	0.750			
0.6539	41850.53	3.7100	3.7106	1.6757	6.00	0.03	0.750			
0.6587	42155.06	3.7070	3.7070	1.5094	5.99	0.02	0.750			
0.6627	42415.36	3.7040	3.7041	1.3344	5.99	0.02	0.750			
0.6664	42651.70	3.7010	3.7010	1.2138	5.98	0.01	0.750			
0.6698	42864.32	3.6980	3.6979	1.1202	5.97	0.00	0.750			
0.6729	43068.45	3.6950	3.6950	1.0501	5.96	-0.01	0.750			
0.6759	43259.05	3.6920	3.6920	0.9883	5.96	-0.01	0.750			
0.6788	43442.57	3.6890	3.6890	0.9469	5.96	-0.01	0.750			
0.6816	43619.64	3.6860	3.6860	0.9152	5.95	-0.02	0.750			
0.6842	43788.91	3.6830	3.6830	0.8827	5.95	-0.02	0.750			
0.6868	43955.78	3.6800	3.6801	0.8567	5.95	-0.02	0.750			
0.6893	44118.33	3.6770	3.6770	0.8311	5.95	-0.02	0.750			
0.6918	44277.07	3.6740	3.6740	0.8028	5.95	-0.02	0.750			
0.6942	44428.22	3.6710	3.6710	0.7761	5.96	-0.01	0.750			
0.6965	44573.60	3.6680	3.6680	0.7418	5.96	-0.01	0.750			
0.6986	44713.37	3.6650	3.6648	0.7107	5.96	-0.01	0.750			
0.7007	44846.81	3.6620	3.6621	0.6776	5.96	-0.01	0.750			
0.7027	44974.70	3.6590	3.6591	0.6462	5.96	-0.01	0.750			
0.7046	45096.82	3.6560	3.6560	0.6140	5.96	-0.01	0.750			
0.7064	45209.02	3.6530	3.6530	0.5805	5.97	-0.00	0.750			
0.7081	45317.91	3.6500	3.6501	0.5522	5.97	-0.00	0.750			
0.7097	45421.97	3.6470	3.6468	0.5233	5.97	-0.00	0.750			
0.7112	45519.23	3.6440	3.6439	0.4928	5.97	-0.00	0.750			
0.7127	45612.01	3.6410	3.6411	0.4615	5.97	0.00	0.750			
0.7140	45697.96	3.6380	3.6380	0.4262	5.97	0.00	0.750			
0.7153	45777.38	3.6350	3.6348	0.3916	5.97	0.00	0.750			
0.7164	45847.83	3.6320	3.6323	0.3515	5.97	0.00	0.750			
0.7174	45912.75	3.6290	3.6289	0.3180	5.97	0.00	0.750			
0.7183	45972.17	3.6260	3.6260	0.2798	5.98	0.01	0.750			
0.7191	46021.94	3.6230	3.6228	0.2382	5.98	0.01	0.750			
0.7198	46064.84	3.6200	3.6200	0.1999	5.98	0.01	0.750			
0.7203	46099.60	3.6170	3.6172	0.1562	5.98	0.01	0.750			
0.7207	46125.93	3.6140	3.6144	0.1104	5.98	0.01	0.750			
0.7210	46144.60	3.6110	3.6113	0.0587	5.98	0.01	0.750			
0.7211	46150.73	3.6080	3.6096	0.0052	5.98	0.01	0.750			
