Ah_balance (normalized)	Ah_balance (mAh)	Voltage - fit (V)	Voltage -  interpolate (V)	dQ/dV (1/V)	Temperature (°C)	Temperature - diff (°C)	Current (C)	R_DC 0ms (mOhm)	R_DC 50ms (mOhm)	R_DC 50 ms PEC (mOhm)
0.1785	11422.97	4.0820	4.0821	0.7957	7.49	1.52	0.750			
0.1808	11572.86	4.0790	4.0791	0.7766	7.48	1.51	0.750			
0.1832	11721.92	4.0760	4.0760	0.7765	7.47	1.50	0.750			
0.1855	11870.35	4.0730	4.0729	0.7790	7.47	1.50	0.750			
0.1878	12019.78	4.0700	4.0700	0.7785	7.46	1.49	0.750			
0.1901	12169.48	4.0670	4.0669	0.7800	7.45	1.48	0.750			
0.1925	12319.98	4.0640	4.0640	0.7869	7.44	1.47	0.750			
0.1949	12473.00	4.0610	4.0609	0.7853	7.44	1.47	0.750			
0.1972	12621.85	4.0580	4.0580	0.7901	7.43	1.46	0.750			
0.1996	12774.44	4.0550	4.0551	0.7935	7.42	1.45	0.750			
0.2020	12926.33	4.0520	4.0520	0.7961	7.41	1.44	0.750			
0.2044	13080.17	4.0490	4.0491	0.8013	7.40	1.43	0.750			
0.2068	13235.01	4.0460	4.0460	0.8006	7.40	1.43	0.750			
0.2092	13388.03	4.0430	4.0431	0.8043	7.39	1.42	0.750			
0.2116	13544.94	4.0400	4.0400	0.8085	7.38	1.41	0.750			
0.2140	13698.41	4.0370	4.0371	0.8069	7.37	1.40	0.750			
0.2165	13853.39	4.0340	4.0341	0.8141	7.37	1.40	0.750			
0.2189	14009.63	4.0310	4.0310	0.8143	7.36	1.39	0.750			
0.2213	14165.49	4.0280	4.0280	0.8215	7.35	1.38	0.750			
0.2238	14324.27	4.0250	4.0250	0.8270	7.34	1.37	0.750			
0.2263	14483.76	4.0220	4.0221	0.8292	7.33	1.36	0.750			
0.2288	14643.07	4.0190	4.0189	0.8367	7.33	1.36	0.750			
0.2314	14806.43	4.0160	4.0160	0.8329	7.32	1.35	0.750			
0.2338	14965.82	4.0130	4.0130	0.8335	7.31	1.34	0.750			
0.2363	15125.27	4.0100	4.0101	0.8371	7.30	1.33	0.750			
0.2388	15284.81	4.0070	4.0071	0.8370	7.29	1.32	0.750			
0.2413	15445.70	4.0040	4.0040	0.8385	7.29	1.32	0.750			
0.2439	15606.50	4.0010	4.0010	0.8404	7.28	1.31	0.750			
0.2464	15766.52	3.9980	3.9981	0.8425	7.27	1.30	0.750			
0.2489	15929.57	3.9950	3.9950	0.8542	7.26	1.29	0.750			
0.2515	16093.42	3.9920	3.9919	0.8577	7.25	1.28	0.750			
0.2541	16259.55	3.9890	3.9890	0.8619	7.25	1.28	0.750			
0.2567	16426.41	3.9860	3.9860	0.8658	7.24	1.27	0.750			
0.2593	16592.82	3.9830	3.9831	0.8724	7.23	1.26	0.750			
0.2619	16760.55	3.9800	3.9800	0.8773	7.22	1.25	0.750			
0.2645	16929.94	3.9770	3.9769	0.8777	7.21	1.24	0.750			
0.2672	17098.14	3.9740	3.9739	0.8773	7.21	1.24	0.750			
0.2698	17267.88	3.9710	3.9711	0.8757	7.20	1.23	0.750			
0.2724	17434.31	3.9680	3.9681	0.8823	7.19	1.22	0.750			
0.2750	17602.78	3.9650	3.9650	0.8874	7.19	1.22	0.750			
0.2777	17772.18	3.9620	3.9617	0.8972	7.18	1.21	0.750			
0.2804	17942.73	3.9590	3.9590	0.9118	7.17	1.20	0.750			
0.2832	18122.96	3.9560	3.9561	0.9141	7.17	1.20	0.750			
0.2860	18303.05	3.9530	3.9530	0.9217	7.16	1.19	0.750			
0.2887	18477.67	3.9500	3.9501	0.9255	7.15	1.18	0.750			
0.2915	18657.38	3.9470	3.9469	0.9244	7.15	1.18	0.750			
0.2943	18833.69	3.9440	3.9439	0.9241	7.14	1.17	0.750			
0.2970	19009.95	3.9410	3.9411	0.9292	7.13	1.16	0.750			
0.2998	19188.22	3.9380	3.9381	0.9349	7.12	1.15	0.750			
0.3027	19370.62	3.9350	3.9349	0.9468	7.11	1.14	0.750			
0.3055	19552.95	3.9320	3.9321	0.9411	7.10	1.13	0.750			
0.3083	19732.00	3.9290	3.9290	0.9499	7.09	1.12	0.750			
0.3112	19916.92	3.9260	3.9260	0.9638	7.08	1.11	0.750			
0.3141	20100.28	3.9230	3.9230	0.9671	7.07	1.10	0.750			
0.3170	20287.53	3.9200	3.9200	0.9718	7.06	1.09	0.750			
0.3199	20475.56	3.9170	3.9171	0.9826	7.06	1.09	0.750			
0.3229	20664.80	3.9140	3.9140	0.9945	7.05	1.08	0.750			
0.3259	20858.32	3.9110	3.9110	1.0068	7.04	1.07	0.750			
0.3289	21050.49	3.9080	3.9080	1.0084	7.03	1.06	0.750			
0.3320	21244.94	3.9050	3.9050	1.0241	7.02	1.05	0.750			
0.3350	21442.42	3.9020	3.9021	1.0394	7.02	1.05	0.750			
0.3382	21644.24	3.8990	3.8991	1.0526	7.01	1.04	0.750			
0.3414	21850.59	3.8960	3.8959	1.0498	7.01	1.04	0.750			
0.3445	22050.78	3.8930	3.8930	1.0641	7.00	1.03	0.750			
0.3477	22254.33	3.8900	3.8901	1.0815	6.99	1.02	0.750			
0.3510	22463.02	3.8870	3.8871	1.0973	6.98	1.01	0.750			
0.3543	22674.04	3.8840	3.8840	1.1047	6.96	0.99	0.750			
0.3576	22888.11	3.8810	3.8812	1.1225	6.95	0.98	0.750			
0.3610	23106.85	3.8780	3.8780	1.1413	6.94	0.97	0.750			
0.3645	23330.65	3.8750	3.8748	1.1466	6.92	0.95	0.750			
0.3680	23549.44	3.8720	3.8720	1.1480	6.91	0.94	0.750			
0.3714	23769.66	3.8690	3.8691	1.1618	6.90	0.93	0.750			
0.3749	23994.08	3.8660	3.8661	1.1785	6.88	0.91	0.750			
0.3784	24219.67	3.8630	3.8630	1.1880	6.87	0.90	0.750			
0.3820	24448.70	3.8600	3.8600	1.2125	6.86	0.89	0.750			
0.3857	24683.26	3.8570	3.8571	1.2385	6.85	0.88	0.750			
0.3895	24925.48	3.8540	3.8539	1.2653	6.84	0.87	0.750			
0.3933	25171.54	3.8510	3.8511	1.2801	6.83	0.86	0.750			
0.3971	25416.02	3.8480	3.8481	1.3108	6.81	0.84	0.750			
0.4011	25670.98	3.8450	3.8450	1.3355	6.80	0.83	0.750			
0.4051	25929.06	3.8420	3.8419	1.3741	6.78	0.81	0.750			
0.4093	26194.05	3.8390	3.8391	1.4042	6.77	0.80	0.750	0.402	0.918	
0.4136	26470.64	3.8360	3.8361	1.4168	6.76	0.79	0.750			
0.4180	26750.91	3.8330	3.8331	1.4413	6.74	0.77	0.750			
0.4223	27028.92	3.8300	3.8301	1.4778	6.73	0.76	0.750			
0.4267	27309.99	3.8270	3.8268	1.4847	6.71	0.74	0.750			
0.4313	27600.30	3.8240	3.8238	1.5099	6.70	0.73	0.750			
0.4358	27893.03	3.8210	3.8212	1.5457	6.68	0.71	0.750			
0.4405	28194.26	3.8180	3.8180	1.5787	6.66	0.69	0.750			
0.4453	28500.74	3.8150	3.8149	1.5890	6.64	0.67	0.750			
0.4500	28802.56	3.8120	3.8122	1.6397	6.62	0.65	0.750			
0.4551	29123.34	3.8090	3.8090	1.6692	6.60	0.63	0.750			
0.4602	29451.46	3.8060	3.8059	1.6876	6.59	0.62	0.750			
0.4653	29780.88	3.8030	3.8029	1.7090	6.57	0.60	0.750			
0.4704	30106.96	3.8000	3.8001	1.7473	6.55	0.58	0.750			
0.4758	30450.95	3.7970	3.7969	1.7913	6.54	0.57	0.750			
0.4812	30796.24	3.7940	3.7937	1.8170	6.52	0.55	0.750			
0.4867	31147.39	3.7910	3.7912	1.8352	6.50	0.53	0.750			
0.4922	31502.52	3.7880	3.7879	1.8514	6.48	0.51	0.750			
0.4979	31863.31	3.7850	3.7851	1.8740	6.45	0.48	0.750			
0.5035	32221.32	3.7820	3.7820	1.8978	6.43	0.46	0.750			
0.5093	32592.27	3.7790	3.7789	1.9436	6.41	0.44	0.750			
0.5152	32970.09	3.7760	3.7760	1.9675	6.39	0.42	0.750			
0.5212	33355.78	3.7730	3.7728	1.9853	6.37	0.40	0.750			
0.5272	33737.71	3.7700	3.7698	1.9979	6.35	0.38	0.750			
0.5332	34123.06	3.7670	3.7671	1.9850	6.33	0.36	0.750			
0.5390	34493.99	3.7640	3.7638	1.9915	6.31	0.34	0.750			
0.5450	34879.42	3.7610	3.7610	2.0235	6.28	0.31	0.750			
0.5511	35272.75	3.7580	3.7581	2.0811	6.27	0.30	0.750			
0.5574	35671.01	3.7550	3.7549	2.1231	6.24	0.27	0.750			
0.5638	36085.00	3.7520	3.7522	2.1431	6.22	0.25	0.750			
0.5703	36499.64	3.7490	3.7490	2.1918	6.19	0.22	0.750			
0.5768	36916.99	3.7460	3.7460	2.2282	6.17	0.20	0.750			
0.5837	37357.64	3.7430	3.7429	2.3328	6.14	0.17	0.750			
0.5908	37810.78	3.7400	3.7402	2.3864	6.11	0.14	0.750			
0.5984	38298.35	3.7370	3.7369	2.3542	6.08	0.11	0.750			
0.6051	38727.66	3.7340	3.7341	2.2366	6.07	0.10	0.750			
0.6115	39136.28	3.7310	3.7309	2.1978	6.06	0.09	0.750			
0.6179	39542.66	3.7280	3.7280	2.2671	6.04	0.07	0.750			
0.6248	39988.35	3.7250	3.7250	2.4181	6.02	0.05	0.750			
0.6327	40491.47	3.7220	3.7220	2.4335	6.00	0.03	0.750			
0.6400	40961.02	3.7190	3.7190	2.3375	5.99	0.02	0.750			
0.6467	41390.27	3.7160	3.7165	2.1894	5.98	0.01	0.750			
0.6532	41803.07	3.7130	3.7129	1.9948	5.97	-0.00	0.750			
0.6589	42170.92	3.7100	3.7103	1.8115	5.96	-0.01	0.750			
0.6639	42488.75	3.7070	3.7070	1.5822	5.95	-0.02	0.750			
0.6682	42766.70	3.7040	3.7040	1.4207	5.95	-0.02	0.750			
0.6722	43020.29	3.7010	3.7010	1.2686	5.95	-0.02	0.750			
0.6757	43243.77	3.6980	3.6981	1.1561	5.95	-0.02	0.750			
0.6790	43455.59	3.6950	3.6950	1.0726	5.95	-0.02	0.750			
0.6820	43648.99	3.6920	3.6920	0.9945	5.95	-0.02	0.750			
0.6848	43825.70	3.6890	3.6890	0.9444	5.95	-0.02	0.750			
0.6875	43999.35	3.6860	3.6860	0.9135	5.95	-0.02	0.750			
0.6901	44166.30	3.6830	3.6825	0.8787	5.95	-0.02	0.750			
0.6928	44336.75	3.6800	3.6800	0.8634	5.95	-0.02	0.750			
0.6954	44503.24	3.6770	3.6771	0.8348	5.95	-0.02	0.750			
0.6979	44665.45	3.6740	3.6741	0.8103	5.95	-0.02	0.750			
0.7003	44816.41	3.6710	3.6710	0.7654	5.95	-0.02	0.750			
0.7025	44959.96	3.6680	3.6678	0.7310	5.95	-0.02	0.750			
0.7046	45094.44	3.6650	3.6650	0.6923	5.95	-0.02	0.750			
0.7066	45225.36	3.6620	3.6620	0.6578	5.96	-0.01	0.750			
0.7086	45349.87	3.6590	3.6590	0.6249	5.96	-0.01	0.750			
0.7104	45465.84	3.6560	3.6560	0.5894	5.96	-0.01	0.750			
0.7121	45574.25	3.6530	3.6530	0.5522	5.96	-0.01	0.750			
0.7137	45675.91	3.6500	3.6500	0.5219	5.97	-0.00	0.750			
0.7152	45773.54	3.6470	3.6468	0.4884	5.97	-0.00	0.750			
0.7166	45865.38	3.6440	3.6440	0.4511	5.97	0.00	0.750			
0.7180	45949.32	3.6410	3.6411	0.4146	5.97	0.00	0.750			
0.7192	46026.19	3.6380	3.6383	0.3765	5.98	0.01	0.750			
0.7202	46093.67	3.6350	3.6348	0.3405	5.98	0.01	0.750			
0.7211	46153.50	3.6320	3.6320	0.3027	5.98	0.01	0.750			
0.7220	46206.85	3.6290	3.6290	0.2690	5.98	0.01	0.750			
0.7228	46258.72	3.6260	3.6257	0.2349	5.98	0.01	0.750			
0.7235	46301.19	3.6230	3.6230	0.1990	5.98	0.01	0.750			
0.7240	46336.71	3.6200	3.6201	0.1614	5.98	0.01	0.750			
0.7245	46366.13	3.6170	3.6172	0.1212	5.98	0.01	0.750			
0.7248	46384.87	3.6140	3.6144	0.0741	5.99	0.02	0.750			
0.7249	46394.72	3.6110	3.6111	0.0265	5.99	0.02	0.750			
0.7249	46395.24	3.6080	3.6109	-0.0211	5.99	0.02	0.750			
