Ah_balance (normalized)	Ah_balance (mAh)	Voltage - fit (V)	Voltage -  interpolate (V)	dQ/dV (1/V)	Temperature (°C)	Temperature - diff (°C)	Current (C)	R_DC 0ms (mOhm)	R_DC 50ms (mOhm)	R_DC 50 ms PEC (mOhm)
0.4248	27184.32	3.8000	3.7999	1.0457	27.12	2.43	0.750			
0.4280	27389.43	3.7970	3.7969	1.0849	27.10	2.41	0.750			
0.4313	27600.52	3.7940	3.7940	1.1051	27.08	2.39	0.750			
0.4346	27814.23	3.7910	3.7910	1.1211	27.07	2.38	0.750			
0.4380	28031.22	3.7880	3.7881	1.1373	27.05	2.36	0.750			
0.4414	28251.88	3.7850	3.7850	1.1482	27.03	2.34	0.750			
0.4449	28474.15	3.7820	3.7820	1.1591	27.01	2.32	0.750			
0.4484	28694.99	3.7790	3.7790	1.1843	26.99	2.30	0.750			
0.4519	28924.07	3.7760	3.7760	1.2099	26.98	2.29	0.750			
0.4556	29158.93	3.7730	3.7730	1.2269	26.96	2.27	0.750			
0.4593	29395.83	3.7700	3.7701	1.2533	26.93	2.24	0.750			
0.4631	29639.30	3.7670	3.7671	1.2811	26.90	2.21	0.750			
0.4670	29888.30	3.7640	3.7639	1.3059	26.85	2.16	0.750			
0.4709	30139.88	3.7610	3.7611	1.3324	26.81	2.12	0.750			
0.4750	30399.30	3.7580	3.7580	1.3618	26.78	2.09	0.750			
0.4791	30663.72	3.7550	3.7550	1.3829	26.75	2.06	0.750			
0.4833	30930.45	3.7520	3.7520	1.4148	26.75	2.06	0.750			
0.4876	31204.76	3.7490	3.7490	1.4522	26.70	2.01	0.750			
0.4920	31487.48	3.7460	3.7460	1.4817	26.64	1.95	0.750			
0.4965	31775.27	3.7430	3.7430	1.5180	26.62	1.93	0.750			
0.5011	32071.84	3.7400	3.7400	1.5533	26.59	1.90	0.750			
0.5058	32374.29	3.7370	3.7370	1.5899	26.57	1.88	0.750			
0.5106	32680.47	3.7340	3.7340	1.6290	26.54	1.85	0.750			
0.5156	32998.30	3.7310	3.7310	1.6796	26.51	1.82	0.750			
0.5207	33323.69	3.7280	3.7280	1.7306	26.49	1.80	0.750			
0.5260	33661.37	3.7250	3.7250	1.7747	26.43	1.74	0.750			
0.5314	34006.67	3.7220	3.7220	1.8167	26.39	1.70	0.750			
0.5369	34359.68	3.7190	3.7190	1.8692	26.34	1.65	0.750			
0.5426	34725.36	3.7160	3.7160	1.9113	26.33	1.64	0.750			
0.5484	35095.20	3.7130	3.7130	1.9408	26.28	1.59	0.750			
0.5543	35475.20	3.7100	3.7100	1.9928	26.22	1.53	0.750			
0.5603	35861.82	3.7070	3.7070	2.0514	26.19	1.50	0.750			
0.5666	36261.19	3.7040	3.7040	2.1079	26.14	1.45	0.750			
0.5730	36673.75	3.7010	3.7010	2.1643	26.08	1.39	0.750			
0.5796	37092.08	3.6980	3.6980	2.2012	26.02	1.33	0.750			
0.5862	37519.34	3.6950	3.6949	2.2445	25.98	1.29	0.750			
0.5930	37952.62	3.6920	3.6920	2.2978	25.95	1.26	0.750			
0.6001	38406.68	3.6890	3.6890	2.3916	25.96	1.27	0.750			
0.6074	38872.79	3.6860	3.6860	2.4287	25.94	1.25	0.750			
0.6147	39343.20	3.6830	3.6830	2.3843	25.90	1.21	0.750			
0.6218	39794.12	3.6800	3.6800	2.2448	25.87	1.18	0.750			
0.6284	40218.14	3.6770	3.6771	2.0616	25.84	1.15	0.750			
0.6342	40587.06	3.6740	3.6740	1.8482	25.83	1.14	0.750			
0.6393	40917.95	3.6710	3.6710	1.6557	25.82	1.13	0.750			
0.6440	41213.89	3.6680	3.6680	1.4910	25.80	1.11	0.750			
0.6482	41483.59	3.6650	3.6650	1.3922	25.78	1.09	0.750			
0.6522	41739.66	3.6620	3.6619	1.3145	25.76	1.07	0.750			
0.6560	41982.72	3.6590	3.6590	1.2404	25.74	1.05	0.750			
0.6596	42213.75	3.6560	3.6560	1.1843	25.72	1.03	0.750			
0.6630	42434.83	3.6530	3.6530	1.1409	25.70	1.01	0.750			
0.6663	42645.09	3.6500	3.6499	1.1014	25.68	0.99	0.750			
0.6695	42849.02	3.6470	3.6471	1.0780	25.66	0.97	0.750			
0.6727	43052.60	3.6440	3.6440	1.0670	25.65	0.96	0.750			
0.6759	43256.29	3.6410	3.6410	1.0687	25.63	0.94	0.750			
0.6791	43460.64	3.6380	3.6379	1.0670	25.62	0.93	0.750			
0.6823	43665.47	3.6350	3.6351	1.0717	25.59	0.90	0.750			
0.6855	43872.18	3.6320	3.6320	1.0794	25.57	0.88	0.750			
0.6888	44080.96	3.6290	3.6290	1.0815	25.55	0.86	0.750			
0.6920	44289.47	3.6260	3.6260	1.0802	25.54	0.85	0.750			
0.6953	44497.57	3.6230	3.6230	1.0799	25.51	0.82	0.750			
0.6985	44703.60	3.6200	3.6201	1.0822	25.48	0.79	0.750			
0.7017	44910.54	3.6170	3.6170	1.0877	25.45	0.76	0.750			
0.7050	45118.12	3.6140	3.6140	1.0942	25.42	0.73	0.750			
0.7082	45325.83	3.6110	3.6110	1.1144	25.39	0.70	0.750			
0.7116	45541.46	3.6080	3.6080	1.1432	25.36	0.67	0.750			
0.7150	45762.91	3.6050	3.6050	1.1782	25.32	0.63	0.750			
0.7186	45992.30	3.6020	3.6020	1.2168	25.28	0.59	0.750			
0.7223	46229.74	3.5990	3.5990	1.2572	25.24	0.55	0.750			
0.7262	46475.37	3.5960	3.5961	1.2949	25.21	0.52	0.750			
0.7301	46728.06	3.5930	3.5930	1.3306	25.19	0.50	0.750			
0.7342	46988.91	3.5900	3.5900	1.3551	25.19	0.50	0.750			
0.7383	47251.13	3.5870	3.5870	1.3738	25.18	0.49	0.750			
0.7425	47519.02	3.5840	3.5840	1.3833	25.16	0.47	0.750			
0.7466	47785.29	3.5810	3.5810	1.3946	25.12	0.43	0.750			
0.7508	48053.72	3.5780	3.5780	1.4044	25.06	0.37	0.750			
0.7551	48325.20	3.5750	3.5749	1.4035	25.02	0.33	0.750			
0.7593	48595.37	3.5720	3.5721	1.4057	24.98	0.29	0.750			
0.7635	48865.39	3.5690	3.5690	1.4087	24.94	0.25	0.750			
0.7678	49136.51	3.5660	3.5660	1.4049	24.91	0.22	0.750			
0.7719	49404.42	3.5630	3.5630	1.4026	24.88	0.19	0.750			
0.7762	49675.29	3.5600	3.5600	1.4026	24.85	0.16	0.750			
0.7807	49964.02	3.5570	3.5568	1.3451	24.84	0.15	0.750			
0.7846	50216.32	3.5540	3.5540	1.2054	24.84	0.15	0.750			
0.7882	50444.34	3.5510	3.5512	1.0411	24.84	0.15	0.750			
0.7912	50635.24	3.5480	3.5480	0.8726	24.84	0.15	0.750			
0.7934	50776.33	3.5450	3.5449	0.7022	24.83	0.14	0.750			
0.7950	50879.07	3.5420	3.5419	0.5354	24.83	0.14	0.750			
0.7962	50958.46	3.5390	3.5388	0.4399	24.82	0.13	0.750			
0.7973	51026.58	3.5360	3.5358	0.3659	24.82	0.13	0.750			
0.7982	51084.94	3.5330	3.5330	0.3218	24.82	0.13	0.750			
0.7991	51141.73	3.5300	3.5300	0.2973	24.81	0.12	0.750			
0.7999	51194.84	3.5270	3.5270	0.2794	24.81	0.12	0.750			
0.8007	51246.53	3.5240	3.5240	0.2679	24.81	0.12	0.750			
0.8015	51296.31	3.5210	3.5210	0.2575	24.81	0.12	0.750			
0.8023	51344.42	3.5180	3.5180	0.2509	24.80	0.11	0.750			
0.8030	51391.65	3.5150	3.5150	0.2455	24.80	0.11	0.750			
0.8037	51438.08	3.5120	3.5120	0.2408	24.80	0.11	0.750			
0.8044	51483.74	3.5090	3.5090	0.2364	24.79	0.10	0.750			
0.8051	51528.65	3.5060	3.5060	0.2324	24.79	0.10	0.750			
0.8058	51573.17	3.5030	3.5030	0.2285	24.79	0.10	0.750			
0.8065	51616.54	3.5000	3.5000	0.2248	24.78	0.09	0.750			
0.8072	51659.31	3.4970	3.4970	0.2208	24.78	0.09	0.750			
0.8078	51701.14	3.4940	3.4940	0.2173	24.78	0.09	0.750			
0.8085	51742.46	3.4910	3.4909	0.2139	24.78	0.09	0.750			
0.8091	51783.09	3.4880	3.4880	0.2105	24.77	0.08	0.750			
0.8097	51823.23	3.4850	3.4851	0.2076	24.77	0.08	0.750			
0.8104	51862.77	3.4820	3.4820	0.2048	24.77	0.08	0.750			
0.8110	51901.91	3.4790	3.4790	0.2022	24.76	0.07	0.750			
0.8116	51940.29	3.4760	3.4760	0.1992	24.76	0.07	0.750			
0.8122	51978.28	3.4730	3.4730	0.1966	24.76	0.07	0.750			
0.8127	52015.80	3.4700	3.4700	0.1939	24.75	0.06	0.750			
0.8133	52052.75	3.4670	3.4670	0.1916	24.75	0.06	0.750			
0.8139	52089.27	3.4640	3.4640	0.1891	24.75	0.06	0.750			
0.8145	52125.32	3.4610	3.4610	0.1868	24.75	0.06	0.750			
0.8150	52160.86	3.4580	3.4580	0.1846	24.74	0.05	0.750			
0.8156	52196.09	3.4550	3.4551	0.1824	24.74	0.05	0.750			
0.8161	52230.88	3.4520	3.4520	0.1803	24.74	0.05	0.750			
0.8166	52265.38	3.4490	3.4490	0.1778	24.74	0.05	0.750			
0.8172	52299.46	3.4460	3.4460	0.1753	24.74	0.05	0.750			
0.8177	52332.86	3.4430	3.4430	0.1727	24.74	0.05	0.750			
0.8182	52365.75	3.4400	3.4400	0.1700	24.73	0.04	0.750			
0.8187	52397.89	3.4370	3.4371	0.1688	24.73	0.04	0.750			
0.8192	52430.03	3.4340	3.4340	0.1665	24.73	0.04	0.750			
0.8197	52461.74	3.4310	3.4310	0.1649	24.73	0.04	0.750			
0.8202	52493.27	3.4280	3.4279	0.1636	24.73	0.04	0.750			
0.8207	52524.75	3.4250	3.4251	0.1616	24.73	0.04	0.750			
0.8212	52555.78	3.4220	3.4220	0.1598	24.73	0.04	0.750			
0.8217	52586.25	3.4190	3.4190	0.1578	24.73	0.04	0.750			
0.8221	52616.32	3.4160	3.4161	0.1554	24.72	0.03	0.750			
0.8226	52645.58	3.4130	3.4129	0.1533	24.72	0.03	0.750			
0.8230	52675.09	3.4100	3.4100	0.1516	24.72	0.03	0.750			
0.8235	52703.80	3.4070	3.4070	0.1494	24.72	0.03	0.750			
0.8239	52732.33	3.4040	3.4040	0.1477	24.72	0.03	0.750			
0.8244	52760.64	3.4010	3.4010	0.1462	24.72	0.03	0.750			
0.8248	52788.42	3.3980	3.3980	0.1445	24.72	0.03	0.750			
0.8252	52816.00	3.3950	3.3950	0.1428	24.72	0.03	0.750			
0.8257	52843.27	3.3920	3.3920	0.1413	24.72	0.03	0.750			
0.8261	52870.20	3.3890	3.3890	0.1398	24.72	0.03	0.750			
0.8265	52897.06	3.3860	3.3860	0.1384	24.71	0.02	0.750			
0.8269	52923.43	3.3830	3.3829	0.1366	24.71	0.02	0.750			
0.8273	52949.48	3.3800	3.3800	0.1349	24.71	0.02	0.750			
0.8277	52975.22	3.3770	3.3770	0.1333	24.71	0.02	0.750			
0.8281	53000.60	3.3740	3.3740	0.1316	24.71	0.02	0.750			
0.8285	53025.72	3.3710	3.3710	0.1301	24.71	0.02	0.750			
0.8289	53050.51	3.3680	3.3680	0.1288	24.71	0.02	0.750			
0.8293	53075.04	3.3650	3.3651	0.1274	24.71	0.02	0.750			
0.8297	53099.43	3.3620	3.3620	0.1260	24.71	0.02	0.750			
0.8301	53123.49	3.3590	3.3590	0.1246	24.71	0.02	0.750			
0.8304	53147.24	3.3560	3.3560	0.1233	24.71	0.02	0.750			
0.8308	53170.78	3.3530	3.3531	0.1220	24.71	0.02	0.750			
0.8312	53194.10	3.3500	3.3500	0.1204	24.71	0.02	0.750			
0.8315	53217.13	3.3470	3.3470	0.1190	24.70	0.01	0.750			
0.8319	53239.82	3.3440	3.3440	0.1175	24.70	0.01	0.750			
0.8322	53262.20	3.3410	3.3410	0.1159	24.70	0.01	0.750			
0.8326	53284.26	3.3380	3.3380	0.1149	24.70	0.01	0.750			
0.8329	53306.20	3.3350	3.3350	0.1136	24.70	0.01	0.750			
0.8332	53327.84	3.3320	3.3320	0.1120	24.70	0.01	0.750			
0.8336	53349.22	3.3290	3.3290	0.1107	24.70	0.01	0.750			
0.8339	53370.46	3.3260	3.3260	0.1094	24.70	0.01	0.750			
0.8342	53391.33	3.3230	3.3230	0.1079	24.70	0.01	0.750			
0.8346	53411.90	3.3200	3.3200	0.1068	24.70	0.01	0.750			
0.8349	53432.28	3.3170	3.3170	0.1055	24.70	0.01	0.750			
0.8352	53452.17	3.3140	3.3140	0.1042	24.70	0.01	0.750			
0.8355	53472.10	3.3110	3.3109	0.1034	24.70	0.01	0.750			
0.8358	53492.03	3.3080	3.3080	0.1020	24.70	0.01	0.750			
0.8361	53511.49	3.3050	3.3050	0.1007	24.70	0.01	0.750			
0.8364	53530.77	3.3020	3.3020	0.0996	24.70	0.01	0.750			
0.8367	53549.76	3.2990	3.2991	0.0982	24.70	0.01	0.750			
0.8370	53568.45	3.2960	3.2960	0.0969	24.70	0.01	0.750			
0.8373	53586.92	3.2930	3.2929	0.0956	24.70	0.01	0.750			
0.8376	53604.96	3.2900	3.2900	0.0944	24.70	0.01	0.750			
0.8379	53623.00	3.2870	3.2871	0.0935	24.69	0.00	0.750			
0.8381	53640.99	3.2840	3.2839	0.0925	24.69	0.00	0.750			
0.8384	53658.64	3.2810	3.2810	0.0914	24.69	0.00	0.750			
0.8387	53676.08	3.2780	3.2780	0.0901	24.69	0.00	0.750			
0.8390	53693.27	3.2750	3.2751	0.0889	24.69	0.00	0.750			
0.8392	53710.25	3.2720	3.2720	0.0879	24.69	0.00	0.750			
0.8395	53727.01	3.2690	3.2690	0.0867	24.69	0.00	0.750			
0.8397	53743.46	3.2660	3.2660	0.0854	24.69	0.00	0.750			
0.8400	53759.74	3.2630	3.2630	0.0843	24.69	0.00	0.750			
0.8402	53775.85	3.2600	3.2600	0.0833	24.69	0.00	0.750			
0.8405	53791.73	3.2570	3.2570	0.0822	24.69	0.00	0.750			
0.8407	53807.43	3.2540	3.2540	0.0812	24.69	0.00	0.750			
0.8410	53822.90	3.2510	3.2509	0.0801	24.69	-0.00	0.750			
0.8412	53838.17	3.2480	3.2480	0.0790	24.69	-0.00	0.750			
0.8415	53853.19	3.2450	3.2450	0.0778	24.69	-0.00	0.750			
0.8417	53868.00	3.2420	3.2420	0.0770	24.69	-0.00	0.750			
0.8419	53882.65	3.2390	3.2390	0.0760	24.69	-0.00	0.750			
0.8421	53897.15	3.2360	3.2360	0.0750	24.69	-0.00	0.750			
0.8424	53911.48	3.2330	3.2330	0.0740	24.69	-0.00	0.750			
0.8426	53925.58	3.2300	3.2300	0.0730	24.69	-0.00	0.750			
0.8428	53939.54	3.2270	3.2270	0.0720	24.69	-0.00	0.750			
0.8430	53953.27	3.2240	3.2241	0.0710	24.69	-0.00	0.750			
0.8432	53966.89	3.2210	3.2210	0.0701	24.69	-0.00	0.750			
0.8434	53980.24	3.2180	3.2180	0.0690	24.69	-0.00	0.750			
0.8436	53993.36	3.2150	3.2151	0.0679	24.69	-0.00	0.750			
0.8438	54006.29	3.2120	3.2120	0.0668	24.69	-0.00	0.750			
0.8440	54018.99	3.2090	3.2090	0.0659	24.68	-0.01	0.750			
0.8442	54031.52	3.2060	3.2061	0.0649	24.68	-0.01	0.750			
0.8444	54043.89	3.2030	3.2031	0.0640	24.68	-0.01	0.750			
0.8446	54056.08	3.2000	3.2000	0.0630	24.68	-0.01	0.750			
0.8448	54068.06	3.1970	3.1971	0.0621	24.68	-0.01	0.750			
0.8450	54079.89	3.1940	3.1940	0.0612	24.68	-0.01	0.750			
0.8452	54091.60	3.1910	3.1910	0.0603	24.68	-0.01	0.750			
0.8454	54103.08	3.1880	3.1881	0.0593	24.68	-0.01	0.750			
0.8455	54114.36	3.1850	3.1850	0.0583	24.68	-0.01	0.750			
0.8457	54125.45	3.1820	3.1820	0.0573	24.68	-0.01	0.750			
0.8459	54136.35	3.1790	3.1790	0.0563	24.68	-0.01	0.750			
0.8460	54147.06	3.1760	3.1760	0.0553	24.68	-0.01	0.750			
0.8462	54157.58	3.1730	3.1730	0.0543	24.68	-0.01	0.750			
0.8464	54167.92	3.1700	3.1701	0.0533	24.68	-0.01	0.750			
0.8465	54178.06	3.1670	3.1670	0.0523	24.68	-0.01	0.750			
0.8467	54188.00	3.1640	3.1640	0.0513	24.68	-0.01	0.750			
0.8468	54197.90	3.1610	3.1610	0.0502	24.68	-0.01	0.750			
0.8470	54207.41	3.1580	3.1580	0.0489	24.68	-0.01	0.750			
0.8471	54216.69	3.1550	3.1551	0.0477	24.68	-0.01	0.750			
0.8473	54225.86	3.1520	3.1520	0.0467	24.68	-0.01	0.750			
0.8474	54234.68	3.1490	3.1491	0.0453	24.68	-0.01	0.750			
0.8476	54243.94	3.1460	3.1458	0.0423	24.68	-0.01	0.750			
0.8477	54251.84	3.1430	3.1430	0.0400	24.68	-0.01	0.750			
0.8478	54259.87	3.1400	3.1400	0.0389	24.68	-0.01	0.750			
0.8479	54267.08	3.1370	3.1373	0.0362	24.68	-0.01	0.750			
0.8480	54273.77	3.1340	3.1346	0.0335	24.68	-0.01	0.750			
0.8481	54279.93	3.1310	3.1319	0.0307	24.68	-0.01	0.750			
0.8482	54285.57	3.1280	3.1293	0.0280	24.68	-0.01	0.750			
0.8483	54290.68	3.1250	3.1267	0.0253	24.68	-0.01	0.750			
0.8484	54295.27	3.1220	3.1244	0.0225	24.68	-0.01	0.750			
0.8484	54299.33	3.1190	3.1218	0.0198	24.68	-0.01	0.750			
0.8485	54302.87	3.1160	3.1193	0.0171	24.68	-0.01	0.750			
