Ah_balance (normalized)	Ah_balance (mAh)	Voltage - fit (V)	Voltage -  interpolate (V)	dQ/dV (1/V)	Temperature (°C)	Temperature - diff (°C)	Current (C)	R_DC 0ms (mOhm)	R_DC 50ms (mOhm)	R_DC 50 ms PEC (mOhm)
0.0150	957.18	4.1990	4.1993	0.7760	25.34	-0.54	0.250			
0.0174	1111.48	4.1960	4.1962	0.8178	25.33	-0.55	0.250			
0.0199	1271.10	4.1930	4.1928	0.8228	25.32	-0.56	0.250			
0.0223	1428.67	4.1900	4.1899	0.8205	25.33	-0.55	0.250			
0.0248	1586.13	4.1870	4.1871	0.8183	25.33	-0.55	0.250			
0.0273	1745.26	4.1840	4.1838	0.8121	25.32	-0.56	0.250	0.355	0.486	
0.0297	1899.07	4.1810	4.1811	0.8069	25.32	-0.56	0.250			
0.0320	2049.43	4.1780	4.1781	0.8085	25.32	-0.56	0.250			
0.0345	2207.45	4.1750	4.1749	0.8171	25.32	-0.56	0.250			
0.0369	2364.05	4.1720	4.1719	0.8201	25.32	-0.56	0.250			
0.0394	2522.93	4.1690	4.1691	0.8263	25.32	-0.56	0.250			
0.0419	2682.82	4.1660	4.1659	0.8283	25.32	-0.56	0.250			
0.0444	2844.39	4.1630	4.1630	0.8313	25.32	-0.56	0.250			
0.0469	3001.19	4.1600	4.1600	0.8254	25.33	-0.55	0.250			
0.0493	3157.92	4.1570	4.1569	0.8310	25.33	-0.55	0.250	0.345	0.482	
0.0519	3318.73	4.1540	4.1540	0.8328	25.32	-0.56	0.250			
0.0544	3479.74	4.1510	4.1509	0.8391	25.32	-0.56	0.250			
0.0569	3642.29	4.1480	4.1481	0.8376	25.33	-0.55	0.250			
0.0594	3802.86	4.1450	4.1449	0.8426	25.35	-0.53	0.250			
0.0619	3964.79	4.1420	4.1420	0.8492	25.36	-0.52	0.250			
0.0645	4128.32	4.1390	4.1388	0.8444	25.34	-0.54	0.250			
0.0671	4291.55	4.1360	4.1362	0.8457	25.34	-0.54	0.250	0.384	0.487	
0.0696	4455.27	4.1330	4.1331	0.8449	25.34	-0.54	0.250			
0.0722	4618.77	4.1300	4.1299	0.8368	25.34	-0.54	0.250			
0.0746	4776.07	4.1270	4.1270	0.8283	25.34	-0.54	0.250			
0.0771	4934.84	4.1240	4.1242	0.8314	25.34	-0.54	0.250			
0.0796	5093.38	4.1210	4.1209	0.8340	25.34	-0.54	0.250			
0.0821	5253.88	4.1180	4.1179	0.8389	25.34	-0.54	0.250			
0.0846	5415.08	4.1150	4.1151	0.8460	25.35	-0.53	0.250			
0.0872	5580.34	4.1120	4.1121	0.8507	25.35	-0.53	0.250	0.273	0.473	
0.0898	5746.72	4.1090	4.1090	0.8511	25.35	-0.53	0.250			
0.0923	5908.08	4.1060	4.1062	0.8524	25.36	-0.52	0.250			
0.0949	6071.74	4.1030	4.1029	0.8573	25.36	-0.52	0.250			
0.0975	6237.12	4.1000	4.0997	0.8512	25.35	-0.53	0.250			
0.1000	6399.50	4.0970	4.0972	0.8562	25.35	-0.53	0.250			
0.1026	6564.33	4.0940	4.0942	0.8587	25.35	-0.53	0.250			
0.1052	6731.27	4.0910	4.0908	0.8552	25.36	-0.52	0.250			
0.1077	6893.85	4.0880	4.0880	0.8568	25.37	-0.51	0.250	0.283	0.477	
0.1103	7058.66	4.0850	4.0851	0.8592	25.38	-0.50	0.250			
0.1129	7225.05	4.0820	4.0816	0.8622	25.38	-0.50	0.250			
0.1155	7389.58	4.0790	4.0792	0.8682	25.37	-0.51	0.250			
0.1180	7554.28	4.0760	4.0759	0.8740	25.37	-0.51	0.250			
0.1207	7725.48	4.0730	4.0729	0.8786	25.37	-0.51	0.250			
0.1234	7895.24	4.0700	4.0701	0.8751	25.37	-0.51	0.250			
0.1260	8065.95	4.0670	4.0672	0.8705	25.38	-0.50	0.250			
0.1286	8232.97	4.0640	4.0640	0.8692	25.38	-0.50	0.250	0.426	0.469	
0.1312	8398.10	4.0610	4.0610	0.8668	25.39	-0.49	0.250			
0.1338	8561.38	4.0580	4.0581	0.8650	25.40	-0.48	0.250			
0.1364	8728.29	4.0550	4.0550	0.8710	25.41	-0.47	0.250			
0.1390	8895.86	4.0520	4.0520	0.8810	25.40	-0.48	0.250			
0.1417	9068.13	4.0490	4.0490	0.8812	25.41	-0.47	0.250			
0.1443	9237.21	4.0460	4.0458	0.8925	25.43	-0.45	0.250			
0.1470	9407.15	4.0430	4.0433	0.8881	25.42	-0.46	0.250			
0.1497	9579.44	4.0400	4.0401	0.8868	25.42	-0.46	0.250	0.327	0.476	
0.1523	9749.47	4.0370	4.0370	0.8919	25.41	-0.47	0.250			
0.1550	9919.00	4.0340	4.0338	0.8941	25.42	-0.46	0.250			
0.1577	10093.25	4.0310	4.0308	0.9012	25.43	-0.45	0.250			
0.1605	10268.93	4.0280	4.0280	0.9013	25.43	-0.45	0.250			
0.1631	10438.11	4.0250	4.0252	0.8993	25.44	-0.44	0.250			
0.1658	10613.44	4.0220	4.0219	0.9008	25.45	-0.43	0.250			
0.1685	10786.43	4.0190	4.0189	0.8996	25.44	-0.44	0.250	0.278	0.487	
0.1712	10955.94	4.0160	4.0161	0.9109	25.45	-0.43	0.250			
0.1740	11134.02	4.0130	4.0129	0.9109	25.46	-0.42	0.250			
0.1767	11309.80	4.0100	4.0099	0.9168	25.47	-0.41	0.250			
0.1795	11486.97	4.0070	4.0073	0.9196	25.46	-0.42	0.250			
0.1822	11663.90	4.0040	4.0038	0.9210	25.45	-0.43	0.250			
0.1850	11841.74	4.0010	4.0009	0.9205	25.47	-0.41	0.250			
0.1878	12017.80	3.9980	3.9979	0.9162	25.47	-0.41	0.250	0.279	0.485	
0.1905	12194.39	3.9950	3.9950	0.9206	25.48	-0.40	0.250			
0.1933	12370.40	3.9920	3.9921	0.9227	25.49	-0.39	0.250			
0.1960	12546.06	3.9890	3.9890	0.9314	25.50	-0.38	0.250			
0.1988	12726.31	3.9860	3.9861	0.9424	25.51	-0.37	0.250			
0.2017	12908.98	3.9830	3.9830	0.9475	25.52	-0.36	0.250			
0.2046	13094.42	3.9800	3.9801	0.9521	25.52	-0.36	0.250			
0.2075	13277.78	3.9770	3.9769	0.9521	25.51	-0.37	0.250	0.369	0.484	
0.2103	13460.86	3.9740	3.9739	0.9517	25.51	-0.37	0.250			
0.2132	13641.61	3.9710	3.9709	0.9454	25.51	-0.37	0.250			
0.2160	13823.66	3.9680	3.9680	0.9413	25.51	-0.37	0.250			
0.2188	14004.45	3.9650	3.9650	0.9404	25.53	-0.35	0.250			
0.2216	14182.04	3.9620	3.9620	0.9435	25.53	-0.35	0.250			
0.2244	14364.49	3.9590	3.9590	0.9417	25.53	-0.35	0.250			
0.2273	14544.51	3.9560	3.9559	0.9465	25.53	-0.35	0.250	0.352	0.498	
0.2301	14726.70	3.9530	3.9532	0.9528	25.54	-0.34	0.250			
0.2330	14910.20	3.9500	3.9499	0.9611	25.55	-0.33	0.250			
0.2359	15097.52	3.9470	3.9470	0.9637	25.55	-0.33	0.250			
0.2388	15281.97	3.9440	3.9440	0.9629	25.56	-0.32	0.250			
0.2417	15466.44	3.9410	3.9411	0.9724	25.56	-0.32	0.250			
0.2446	15654.32	3.9380	3.9380	0.9741	25.55	-0.33	0.250			
0.2475	15841.06	3.9350	3.9350	0.9748	25.57	-0.31	0.250	0.358	0.480	
0.2504	16027.98	3.9320	3.9320	0.9758	25.57	-0.31	0.250			
0.2534	16217.34	3.9290	3.9290	0.9783	25.57	-0.31	0.250			
0.2563	16405.65	3.9260	3.9260	0.9735	25.57	-0.31	0.250			
0.2592	16591.30	3.9230	3.9230	0.9719	25.58	-0.30	0.250			
0.2621	16775.46	3.9200	3.9201	0.9710	25.59	-0.29	0.250			
0.2650	16962.02	3.9170	3.9171	0.9806	25.60	-0.28	0.250			
0.2680	17150.82	3.9140	3.9139	0.9844	25.61	-0.27	0.250	0.336	0.509	
0.2710	17341.23	3.9110	3.9109	0.9869	25.61	-0.27	0.250			
0.2739	17532.63	3.9080	3.9080	0.9913	25.62	-0.26	0.250			
0.2769	17721.55	3.9050	3.9050	0.9941	25.63	-0.25	0.250			
0.2799	17912.70	3.9020	3.9019	0.9933	25.66	-0.22	0.250			
0.2828	18101.97	3.8990	3.8990	0.9963	25.68	-0.20	0.250			
0.2859	18294.84	3.8960	3.8960	0.9985	25.69	-0.19	0.250			
0.2889	18488.28	3.8930	3.8930	1.0071	25.70	-0.18	0.250	0.337	0.491	
0.2919	18680.86	3.8900	3.8901	1.0163	25.70	-0.18	0.250			
0.2950	18878.04	3.8870	3.8869	1.0202	25.71	-0.17	0.250			
0.2980	19074.09	3.8840	3.8839	1.0219	25.74	-0.14	0.250			
0.3011	19271.97	3.8810	3.8812	1.0215	25.75	-0.13	0.250			
0.3042	19467.61	3.8780	3.8781	1.0299	25.75	-0.13	0.250			
0.3073	19664.84	3.8750	3.8750	1.0340	25.75	-0.13	0.250	0.280	0.475	
0.3104	19863.23	3.8720	3.8719	1.0325	25.77	-0.11	0.250			
0.3135	20063.61	3.8690	3.8691	1.0377	25.79	-0.09	0.250			
0.3167	20265.82	3.8660	3.8660	1.0465	25.81	-0.07	0.250			
0.3198	20466.76	3.8630	3.8631	1.0438	25.82	-0.06	0.250			
0.3229	20662.46	3.8600	3.8599	1.0484	25.84	-0.04	0.250			
0.3260	20864.50	3.8570	3.8571	1.0514	25.85	-0.03	0.250			
0.3292	21068.31	3.8540	3.8540	1.0567	25.86	-0.02	0.250	0.311	0.486	
0.3324	21274.82	3.8510	3.8511	1.0663	25.88	0.00	0.250			
0.3356	21481.06	3.8480	3.8479	1.0487	25.88	0.00	0.250			
0.3388	21683.07	3.8450	3.8450	1.0380	25.92	0.04	0.250			
0.3419	21879.78	3.8420	3.8422	1.0121	25.94	0.06	0.250			
0.3449	22072.61	3.8390	3.8388	0.9883	25.96	0.08	0.250			
0.3478	22261.60	3.8360	3.8358	0.9672	25.99	0.11	0.250	0.341	0.494	
0.3507	22445.74	3.8330	3.8330	0.9301	26.02	0.14	0.250			
0.3535	22626.22	3.8300	3.8299	0.8947	26.03	0.15	0.250			
0.3561	22793.35	3.8270	3.8272	0.8459	26.05	0.17	0.250			
0.3586	22950.81	3.8240	3.8240	0.8088	26.06	0.18	0.250			
0.3609	23100.29	3.8210	3.8211	0.7759	26.07	0.19	0.250			
0.3631	23241.39	3.8180	3.8179	0.7491	26.08	0.20	0.250			
0.3653	23380.67	3.8150	3.8153	0.7377	26.08	0.20	0.250			
0.3675	23522.90	3.8120	3.8121	0.7314	26.09	0.21	0.250	0.277	0.501	
0.3698	23664.65	3.8090	3.8088	0.7266	26.09	0.21	0.250			
0.3719	23799.78	3.8060	3.8062	0.7231	26.11	0.23	0.250			
0.3740	23935.83	3.8030	3.8031	0.7402	26.12	0.24	0.250			
0.3762	24077.50	3.8000	3.7999	0.7569	26.12	0.24	0.250			
0.3785	24223.53	3.7970	3.7968	0.7760	26.11	0.23	0.250			
0.3808	24373.95	3.7940	3.7942	0.8017	26.10	0.22	0.250			
0.3833	24533.27	3.7910	3.7909	0.8340	26.10	0.22	0.250			
0.3859	24695.95	3.7880	3.7881	0.8690	26.11	0.23	0.250			
0.3885	24864.18	3.7850	3.7849	0.8895	26.10	0.22	0.250	0.391	0.473	
0.3912	25036.47	3.7820	3.7819	0.9307	26.10	0.22	0.250			
0.3941	25222.46	3.7790	3.7791	0.9608	26.10	0.22	0.250			
0.3971	25413.84	3.7760	3.7758	0.9854	26.10	0.22	0.250			
0.4000	25602.66	3.7730	3.7732	1.0109	26.10	0.22	0.250			
0.4031	25797.25	3.7700	3.7702	1.0354	26.09	0.21	0.250			
0.4062	25998.84	3.7670	3.7669	1.0650	26.08	0.20	0.250			
0.4095	26205.01	3.7640	3.7640	1.0933	26.07	0.19	0.250	0.324	0.517	
0.4128	26419.48	3.7610	3.7611	1.1184	26.07	0.19	0.250			
0.4163	26640.03	3.7580	3.7578	1.1525	26.07	0.19	0.250			
0.4197	26862.98	3.7550	3.7551	1.1696	26.08	0.20	0.250			
0.4232	27086.78	3.7520	3.7519	1.1914	26.04	0.16	0.250			
0.4269	27318.94	3.7490	3.7491	1.2275	26.05	0.17	0.250	0.303	0.491	
0.4306	27555.63	3.7460	3.7460	1.2451	26.06	0.18	0.250			
0.4344	27801.11	3.7430	3.7430	1.2752	26.05	0.17	0.250			
0.4383	28049.25	3.7400	3.7400	1.2934	26.03	0.15	0.250			
0.4421	28297.33	3.7370	3.7370	1.3186	26.02	0.14	0.250			
0.4461	28550.16	3.7340	3.7341	1.3491	26.01	0.13	0.250			
0.4502	28813.67	3.7310	3.7308	1.3847	26.00	0.12	0.250	0.333	0.491	
0.4544	29084.19	3.7280	3.7279	1.4053	25.97	0.09	0.250			
0.4587	29355.41	3.7250	3.7251	1.4361	25.96	0.08	0.250			
0.4630	29632.95	3.7220	3.7221	1.4681	25.96	0.08	0.250			
0.4674	29916.10	3.7190	3.7189	1.4975	25.95	0.07	0.250	0.404	0.505	
0.4720	30206.39	3.7160	3.7161	1.5344	25.95	0.07	0.250			
0.4766	30504.32	3.7130	3.7131	1.5772	25.93	0.05	0.250			
0.4815	30814.36	3.7100	3.7101	1.6310	25.92	0.04	0.250			
0.4865	31133.12	3.7070	3.7072	1.6696	25.92	0.04	0.250	0.383	0.489	
0.4915	31453.21	3.7040	3.7041	1.7226	25.90	0.02	0.250			
0.4967	31788.59	3.7010	3.7010	1.7963	25.90	0.02	0.250			
0.5021	32137.34	3.6980	3.6979	1.8572	25.88	0.00	0.250			
0.5079	32503.14	3.6950	3.6949	1.9246	25.85	-0.03	0.250	0.274	0.503	
0.5137	32877.91	3.6920	3.6923	1.9926	25.83	-0.05	0.250			
0.5198	33267.43	3.6890	3.6890	2.0694	25.81	-0.07	0.250			
0.5261	33667.71	3.6860	3.6860	2.1461	25.78	-0.10	0.250	0.372	0.547	
0.5326	34086.64	3.6830	3.6829	2.2225	25.76	-0.12	0.250			
0.5394	34521.31	3.6800	3.6800	2.3269	25.72	-0.16	0.250			
0.5465	34978.40	3.6770	3.6770	2.4236	25.68	-0.20	0.250	0.336	0.526	
0.5539	35451.03	3.6740	3.6740	2.5466	25.64	-0.24	0.250			
0.5617	35946.25	3.6710	3.6712	2.6711	25.59	-0.29	0.250			
0.5699	36475.84	3.6680	3.6679	2.7829	25.53	-0.35	0.250	0.311	0.527	
0.5784	37017.44	3.6650	3.6650	2.9135	25.48	-0.40	0.250			
0.5874	37593.47	3.6620	3.6619	3.0375	25.43	-0.45	0.250	0.352	0.532	
0.5966	38182.61	3.6590	3.6588	3.1922	25.36	-0.52	0.250			
0.6065	38813.53	3.6560	3.6559	3.3428	25.30	-0.58	0.250	0.255	0.546	
0.6167	39471.61	3.6530	3.6532	3.5076	25.22	-0.66	0.250			
0.6276	40163.30	3.6500	3.6502	3.6851	25.15	-0.73	0.250	0.351	0.539	
0.6387	40877.45	3.6470	3.6470	3.7730	25.06	-0.82	0.250			
0.6503	41619.35	3.6440	3.6442	3.8187	24.98	-0.90	0.250	0.368	0.562	
0.6618	42353.68	3.6410	3.6411	3.8121	24.91	-0.97	0.250			
0.6733	43093.33	3.6380	3.6380	3.7386	24.85	-1.03	0.250	0.357	0.546	
0.6844	43802.05	3.6350	3.6350	3.5122	24.82	-1.06	0.250	0.320	0.545	
0.6946	44456.00	3.6320	3.6322	3.2514	24.81	-1.07	0.250			
0.7039	45048.42	3.6290	3.6290	2.8932	24.82	-1.06	0.250			
0.7122	45580.23	3.6260	3.6258	2.5504	24.84	-1.04	0.250	0.346	0.574	
0.7193	46036.57	3.6230	3.6230	2.1717	24.87	-1.01	0.250			
0.7252	46414.34	3.6200	3.6200	1.8360	24.87	-1.01	0.250			
0.7300	46717.97	3.6170	3.6168	1.5468	24.87	-1.01	0.250	0.387	0.548	
0.7337	46955.06	3.6140	3.6140	1.3456	24.87	-1.01	0.250			
0.7372	47177.82	3.6110	3.6110	1.2550	24.86	-1.02	0.250			
0.7407	47404.19	3.6080	3.6080	1.2474	24.87	-1.01	0.250			
0.7444	47641.31	3.6050	3.6048	1.2675	24.87	-1.01	0.250			
0.7482	47887.53	3.6020	3.6021	1.3135	24.87	-1.01	0.250	0.351	0.617	
0.7523	48147.50	3.5990	3.5991	1.3501	24.88	-1.00	0.250			
0.7565	48415.78	3.5960	3.5959	1.3669	24.89	-0.99	0.250			
0.7607	48684.14	3.5930	3.5930	1.3485	24.89	-0.99	0.250			
0.7648	48946.88	3.5900	3.5900	1.3022	24.90	-0.98	0.250			
0.7687	49197.32	3.5870	3.5869	1.2441	24.90	-0.98	0.250	0.326	0.575	
0.7722	49423.67	3.5840	3.5842	1.1837	24.91	-0.97	0.250			
0.7756	49638.93	3.5810	3.5811	1.1486	24.92	-0.96	0.250			
0.7790	49853.31	3.5780	3.5778	1.1196	24.92	-0.96	0.250			
0.7822	50060.32	3.5750	3.5750	1.1247	24.93	-0.95	0.250			
0.7856	50278.78	3.5720	3.5722	1.1424	24.93	-0.95	0.250			
0.7891	50503.68	3.5690	3.5689	1.1592	24.94	-0.94	0.250	0.420	0.546	
0.7926	50729.20	3.5660	3.5660	1.1537	24.95	-0.93	0.250			
0.7961	50950.90	3.5630	3.5632	1.1379	24.95	-0.93	0.250			
0.7996	51175.31	3.5600	3.5599	1.1266	24.96	-0.92	0.250			
0.8029	51383.44	3.5570	3.5571	1.1009	24.96	-0.92	0.250			
0.8060	51585.34	3.5540	3.5541	1.1000	24.97	-0.91	0.250			
0.8093	51793.71	3.5510	3.5509	1.1191	24.97	-0.91	0.250	0.348	0.601	
0.8127	52010.10	3.5480	3.5480	1.1483	24.97	-0.91	0.250			
0.8162	52233.86	3.5450	3.5451	1.1887	24.97	-0.91	0.250			
0.8197	52461.56	3.5420	3.5420	1.2619	24.96	-0.92	0.250			
0.8235	52703.43	3.5390	3.5389	1.3419	24.96	-0.92	0.250			
0.8276	52967.10	3.5360	3.5358	1.4308	24.95	-0.93	0.250	0.375	0.589	
0.8320	53247.36	3.5330	3.5331	1.5619	24.94	-0.94	0.250			
0.8368	53557.34	3.5300	3.5300	1.7210	24.93	-0.95	0.250			
0.8422	53900.00	3.5270	3.5269	1.8918	24.91	-0.97	0.250			
0.8481	54281.32	3.5240	3.5240	2.0445	24.90	-0.98	0.250	0.311	0.606	
0.8546	54693.12	3.5210	3.5208	2.1928	24.88	-1.00	0.250			
0.8615	55136.63	3.5180	3.5180	2.3376	24.87	-1.01	0.250			
0.8688	55600.62	3.5150	3.5146	2.4254	24.83	-1.05	0.250	0.449	0.610	
0.8762	56077.50	3.5120	3.5124	2.4849	24.82	-1.06	0.250			
0.8841	56580.60	3.5090	3.5090	2.4140	24.81	-1.07	0.250			
0.8918	57073.05	3.5060	3.5058	2.1645	24.79	-1.09	0.250	0.347	0.601	
0.8982	57482.24	3.5030	3.5034	1.8116	24.81	-1.07	0.250			
0.9033	57809.25	3.5000	3.5003	1.4075	24.80	-1.08	0.250			
0.9066	58023.93	3.4970	3.4964	0.9942	24.82	-1.06	0.250			
0.9082	58127.96	3.4940	3.4931	0.7123	24.84	-1.04	0.250			
0.9094	58200.20	3.4910	3.4907	0.5044	24.85	-1.03	0.250	0.350	0.630	
0.9105	58270.34	3.4880	3.4878	0.4200	24.87	-1.01	0.250			
0.9115	58338.87	3.4850	3.4850	0.3722	24.88	-1.00	0.250			
0.9126	58406.35	3.4820	3.4820	0.3494	24.89	-0.99	0.250			
0.9136	58470.51	3.4790	3.4790	0.3324	24.90	-0.98	0.250			
0.9146	58532.02	3.4760	3.4760	0.3181	24.91	-0.97	0.250			
0.9155	58591.25	3.4730	3.4731	0.3064	24.93	-0.95	0.250			
0.9164	58648.86	3.4700	3.4700	0.2966	24.94	-0.94	0.250			
0.9173	58704.44	3.4670	3.4670	0.2880	24.95	-0.93	0.250			
0.9181	58758.74	3.4640	3.4640	0.2814	24.96	-0.92	0.250			
0.9189	58811.82	3.4610	3.4609	0.2749	24.98	-0.90	0.250			
0.9197	58863.63	3.4580	3.4580	0.2704	24.99	-0.89	0.250			
0.9205	58914.99	3.4550	3.4550	0.2657	25.00	-0.88	0.250			
0.9213	58965.91	3.4520	3.4520	0.2617	25.02	-0.86	0.250			
0.9221	59015.92	3.4490	3.4490	0.2580	25.03	-0.85	0.250			
0.9229	59065.04	3.4460	3.4461	0.2534	25.04	-0.84	0.250			
0.9236	59113.04	3.4430	3.4430	0.2503	25.05	-0.83	0.250			
0.9244	59161.03	3.4400	3.4399	0.2450	25.07	-0.81	0.250			
0.9251	59206.95	3.4370	3.4371	0.2412	25.08	-0.80	0.250			
0.9258	59254.11	3.4340	3.4338	0.2359	25.09	-0.79	0.250			
0.9266	59299.48	3.4310	3.4311	0.2311	25.10	-0.78	0.250			
0.9272	59342.21	3.4280	3.4281	0.2307	25.11	-0.77	0.250			
0.9279	59385.67	3.4250	3.4252	0.2273	25.13	-0.75	0.250			
0.9286	59429.35	3.4220	3.4223	0.2258	25.14	-0.74	0.250			
0.9293	59472.47	3.4190	3.4193	0.2213	25.15	-0.73	0.250	0.338	0.627	
0.9299	59515.65	3.4160	3.4161	0.2192	25.17	-0.71	0.250			
0.9306	59556.87	3.4130	3.4131	0.2151	25.18	-0.70	0.250			
0.9312	59597.86	3.4100	3.4102	0.2118	25.19	-0.69	0.250			
0.9319	59638.49	3.4070	3.4069	0.2063	25.20	-0.68	0.250			
0.9325	59677.19	3.4040	3.4039	0.2035	25.21	-0.67	0.250			
0.9331	59716.59	3.4010	3.4010	0.2009	25.22	-0.66	0.250			
0.9337	59755.11	3.3980	3.3981	0.1988	25.23	-0.65	0.250			
0.9343	59793.23	3.3950	3.3950	0.1986	25.24	-0.64	0.250			
0.9349	59830.95	3.3920	3.3921	0.1961	25.25	-0.63	0.250			
0.9354	59868.24	3.3890	3.3890	0.1936	25.26	-0.62	0.250			
0.9360	59905.40	3.3860	3.3861	0.1917	25.27	-0.61	0.250			
0.9366	59942.24	3.3830	3.3830	0.1901	25.29	-0.59	0.250			
0.9372	59978.62	3.3800	3.3801	0.1865	25.30	-0.58	0.250			
0.9377	60014.73	3.3770	3.3770	0.1847	25.31	-0.57	0.250			
0.9383	60049.38	3.3740	3.3740	0.1801	25.32	-0.56	0.250			
0.9388	60083.36	3.3710	3.3710	0.1782	25.33	-0.55	0.250			
0.9393	60117.13	3.3680	3.3680	0.1759	25.34	-0.54	0.250			
0.9399	60150.51	3.3650	3.3651	0.1743	25.36	-0.52	0.250			
0.9404	60183.62	3.3620	3.3619	0.1731	25.37	-0.51	0.250			
0.9409	60217.05	3.3590	3.3590	0.1716	25.37	-0.51	0.250			
0.9414	60250.19	3.3560	3.3560	0.1705	25.38	-0.50	0.250			
0.9419	60282.98	3.3530	3.3529	0.1679	25.39	-0.49	0.250			
0.9424	60315.23	3.3500	3.3501	0.1658	25.40	-0.48	0.250			
0.9429	60346.46	3.3470	3.3470	0.1631	25.41	-0.47	0.250			
0.9434	60377.49	3.3440	3.3440	0.1610	25.42	-0.46	0.250			
0.9439	60408.12	3.3410	3.3410	0.1588	25.42	-0.46	0.250			
0.9443	60438.05	3.3380	3.3380	0.1571	25.43	-0.45	0.250			
0.9448	60468.19	3.3350	3.3350	0.1561	25.44	-0.44	0.250			
0.9453	60498.07	3.3320	3.3320	0.1548	25.45	-0.43	0.250			
0.9457	60527.71	3.3290	3.3290	0.1536	25.46	-0.42	0.250			
0.9462	60557.05	3.3260	3.3260	0.1524	25.47	-0.41	0.250			
0.9467	60586.38	3.3230	3.3230	0.1504	25.48	-0.40	0.250			
0.9471	60615.29	3.3200	3.3200	0.1489	25.49	-0.39	0.250			
0.9476	60643.60	3.3170	3.3170	0.1470	25.50	-0.38	0.250			
0.9480	60671.58	3.3140	3.3141	0.1452	25.51	-0.37	0.250			
0.9484	60699.22	3.3110	3.3110	0.1435	25.52	-0.36	0.250			
0.9489	60726.52	3.3080	3.3078	0.1417	25.53	-0.35	0.250	0.368	0.625	
0.9493	60753.65	3.3050	3.3050	0.1398	25.54	-0.34	0.250			
0.9497	60780.21	3.3020	3.3020	0.1383	25.55	-0.33	0.250			
0.9501	60806.73	3.2990	3.2991	0.1372	25.56	-0.32	0.250			
0.9505	60832.79	3.2960	3.2960	0.1354	25.57	-0.31	0.250			
0.9509	60858.81	3.2930	3.2929	0.1331	25.58	-0.30	0.250			
0.9513	60884.13	3.2900	3.2900	0.1318	25.58	-0.30	0.250			
0.9517	60909.08	3.2870	3.2871	0.1304	25.59	-0.29	0.250			
0.9521	60934.02	3.2840	3.2840	0.1293	25.60	-0.28	0.250			
0.9525	60958.70	3.2810	3.2808	0.1284	25.61	-0.27	0.250			
0.9529	60983.11	3.2780	3.2780	0.1270	25.62	-0.26	0.250			
0.9532	61007.40	3.2750	3.2750	0.1263	25.63	-0.25	0.250			
0.9536	61031.76	3.2720	3.2721	0.1251	25.64	-0.24	0.250			
0.9540	61056.15	3.2690	3.2690	0.1244	25.65	-0.23	0.250			
0.9544	61079.70	3.2660	3.2659	0.1227	25.65	-0.23	0.250			
0.9547	61103.10	3.2630	3.2630	0.1212	25.66	-0.22	0.250			
0.9551	61126.33	3.2600	3.2600	0.1192	25.67	-0.21	0.250			
0.9555	61149.13	3.2570	3.2570	0.1175	25.68	-0.20	0.250			
0.9558	61171.41	3.2540	3.2541	0.1160	25.69	-0.19	0.250			
0.9561	61193.45	3.2510	3.2510	0.1143	25.70	-0.18	0.250			
0.9565	61215.20	3.2480	3.2480	0.1130	25.70	-0.18	0.250			
0.9568	61236.74	3.2450	3.2450	0.1116	25.71	-0.17	0.250			
0.9572	61257.99	3.2420	3.2420	0.1107	25.72	-0.16	0.250			
0.9575	61278.89	3.2390	3.2390	0.1095	25.73	-0.15	0.250			
0.9578	61299.96	3.2360	3.2360	0.1087	25.73	-0.15	0.250			
0.9581	61320.73	3.2330	3.2330	0.1077	25.74	-0.14	0.250			
0.9585	61341.33	3.2300	3.2300	0.1064	25.75	-0.13	0.250			
0.9588	61361.65	3.2270	3.2270	0.1052	25.75	-0.13	0.250			
0.9591	61381.74	3.2240	3.2241	0.1044	25.76	-0.12	0.250			
0.9594	61401.68	3.2210	3.2210	0.1033	25.77	-0.11	0.250			
0.9597	61421.50	3.2180	3.2180	0.1018	25.77	-0.11	0.250			
0.9600	61440.92	3.2150	3.2150	0.1005	25.78	-0.10	0.250			
0.9603	61460.03	3.2120	3.2120	0.0994	25.79	-0.09	0.250			
0.9606	61479.01	3.2090	3.2091	0.0983	25.79	-0.09	0.250			
0.9609	61497.73	3.2060	3.2058	0.0973	25.80	-0.08	0.250			
0.9612	61516.30	3.2030	3.2030	0.0962	25.81	-0.07	0.250			
0.9615	61534.72	3.2000	3.2000	0.0945	25.81	-0.07	0.250			
0.9618	61552.76	3.1970	3.1970	0.0933	25.82	-0.06	0.250			
0.9620	61570.57	3.1940	3.1941	0.0927	25.82	-0.06	0.250			
0.9623	61588.25	3.1910	3.1911	0.0914	25.83	-0.05	0.250			
0.9626	61605.66	3.1880	3.1879	0.0903	25.83	-0.05	0.250			
0.9629	61622.74	3.1850	3.1849	0.0890	25.84	-0.04	0.250			
0.9631	61639.72	3.1820	3.1820	0.0881	25.84	-0.04	0.250			
0.9634	61656.46	3.1790	3.1791	0.0870	25.85	-0.03	0.250			
0.9636	61673.09	3.1760	3.1761	0.0862	25.85	-0.03	0.250			
0.9639	61689.87	3.1730	3.1729	0.0852	25.86	-0.02	0.250			
0.9642	61706.10	3.1700	3.1699	0.0839	25.86	-0.02	0.250			
0.9644	61721.93	3.1670	3.1671	0.0826	25.87	-0.01	0.250			
0.9647	61737.69	3.1640	3.1641	0.0815	25.87	-0.01	0.250			
0.9649	61753.29	3.1610	3.1610	0.0804	25.88	-0.00	0.250			
0.9651	61768.53	3.1580	3.1581	0.0795	25.88	0.00	0.250			
0.9654	61783.70	3.1550	3.1549	0.0785	25.89	0.01	0.250			
0.9656	61798.45	3.1520	3.1520	0.0775	25.89	0.01	0.250			
0.9658	61813.41	3.1490	3.1489	0.0761	25.90	0.02	0.250			
0.9661	61828.12	3.1460	3.1460	0.0753	25.90	0.02	0.250			
0.9663	61842.51	3.1430	3.1430	0.0737	25.90	0.02	0.250			
0.9665	61856.52	3.1400	3.1400	0.0722	25.91	0.03	0.250			
0.9667	61870.38	3.1370	3.1370	0.0708	25.91	0.03	0.250			
0.9669	61883.78	3.1340	3.1340	0.0691	25.92	0.04	0.250			
0.9671	61896.86	3.1310	3.1310	0.0674	25.92	0.04	0.250			
0.9673	61909.64	3.1280	3.1281	0.0657	25.92	0.04	0.250			
0.9675	61922.11	3.1250	3.1250	0.0641	25.93	0.05	0.250			
0.9677	61935.04	3.1220	3.1218	0.0614	25.93	0.05	0.250			
0.9679	61946.54	3.1190	3.1189	0.0584	25.94	0.06	0.250			
0.9681	61957.45	3.1160	3.1161	0.0553	25.94	0.06	0.250			
0.9683	61968.51	3.1130	3.1130	0.0531	25.94	0.06	0.250			
0.9684	61978.36	3.1100	3.1104	0.0494	25.94	0.06	0.250			
0.9686	61987.50	3.1070	3.1077	0.0457	25.95	0.07	0.250			
0.9687	61995.92	3.1040	3.1048	0.0420	25.95	0.07	0.250			
0.9688	62003.63	3.1010	3.1023	0.0383	25.95	0.07	0.250			
0.9689	62010.63	3.0980	3.0994	0.0346	25.95	0.07	0.250			
